File: Data/113xx/Omega/1.5deg-2.0deg-rsm-2h30mins_11354-annealed_004_w-scans.dat
# filename: 1.5deg-2.0deg-rsm-2h30mins_11354-annealed_004.dat
# reflection: (004)
# type: rotated into a series of omega scans
# x-axis: Omega_2Theta
#
# Omega	2Theta	Phi  	Chi   	X    	Y    	Z    	q_para	q_perp	Intensity
# [deg]	[deg] 	[deg]	[deg] 	[mm] 	[mm] 	[mm] 	[nm-1]	[nm-1]	[counts/s]
32.8539	66.6702	-0.10	0.00	0.00	-22.75	7.333	0.05992	7.13396	0.0
32.8739	66.6702	-0.10	0.00	0.00	-22.75	7.333	0.05743	7.13398	2.0
32.8939	66.6702	-0.10	0.00	0.00	-22.75	7.333	0.05494	7.13400	0.0
32.9139	66.6702	-0.10	0.00	0.00	-22.75	7.333	0.05245	7.13402	0.0
32.9339	66.6702	-0.10	0.00	0.00	-22.75	7.333	0.04996	7.13404	6.0
32.9539	66.6702	-0.10	0.00	0.00	-22.75	7.333	0.04746	7.13405	0.0
32.9739	66.6702	-0.10	0.00	0.00	-22.75	7.333	0.04497	7.13407	0.0
32.9939	66.6702	-0.10	0.00	0.00	-22.75	7.333	0.04248	7.13408	0.0
33.0139	66.6702	-0.10	0.00	0.00	-22.75	7.333	0.03999	7.13410	0.0
33.0339	66.6702	-0.10	0.00	0.00	-22.75	7.333	0.03750	7.13411	0.0
33.0539	66.6702	-0.10	0.00	0.00	-22.75	7.333	0.03501	7.13413	4.0
33.0739	66.6702	-0.10	0.00	0.00	-22.75	7.333	0.03252	7.13414	0.0
33.0939	66.6702	-0.10	0.00	0.00	-22.75	7.333	0.03003	7.13415	0.0
33.1139	66.6702	-0.10	0.00	0.00	-22.75	7.333	0.02754	7.13416	2.0
33.1339	66.6702	-0.10	0.00	0.00	-22.75	7.333	0.02505	7.13417	0.0
33.1539	66.6702	-0.10	0.00	0.00	-22.75	7.333	0.02256	7.13418	0.0
33.1739	66.6702	-0.10	0.00	0.00	-22.75	7.333	0.02007	7.13418	2.0
33.1939	66.6702	-0.10	0.00	0.00	-22.75	7.333	0.01758	7.13419	0.0
33.2139	66.6702	-0.10	0.00	0.00	-22.75	7.333	0.01509	7.13420	2.0
33.2339	66.6702	-0.10	0.00	0.00	-22.75	7.333	0.01260	7.13420	6.0
33.2539	66.6702	-0.10	0.00	0.00	-22.75	7.333	0.01011	7.13420	2.0
33.2739	66.6702	-0.10	0.00	0.00	-22.75	7.333	0.00762	7.13421	2.0
33.2939	66.6702	-0.10	0.00	0.00	-22.75	7.333	0.00513	7.13421	2.0
33.3139	66.6702	-0.10	0.00	0.00	-22.75	7.333	0.00264	7.13421	0.0
33.3339	66.6702	-0.10	0.00	0.00	-22.75	7.333	0.00015	7.13421	2.0
33.3539	66.6702	-0.10	0.00	0.00	-22.75	7.333	-0.00234	7.13421	0.0
33.3739	66.6702	-0.10	0.00	0.00	-22.75	7.333	-0.00483	7.13421	0.0
33.3939	66.6702	-0.10	0.00	0.00	-22.75	7.333	-0.00732	7.13421	2.0
33.4139	66.6702	-0.10	0.00	0.00	-22.75	7.333	-0.00981	7.13420	0.0
33.4339	66.6702	-0.10	0.00	0.00	-22.75	7.333	-0.01230	7.13420	2.0
33.4539	66.6702	-0.10	0.00	0.00	-22.75	7.333	-0.01479	7.13420	0.0
33.4739	66.6702	-0.10	0.00	0.00	-22.75	7.333	-0.01728	7.13419	0.0
33.4939	66.6702	-0.10	0.00	0.00	-22.75	7.333	-0.01977	7.13418	0.0
33.5139	66.6702	-0.10	0.00	0.00	-22.75	7.333	-0.02226	7.13418	0.0
33.5339	66.6702	-0.10	0.00	0.00	-22.75	7.333	-0.02475	7.13417	0.0
33.5539	66.6702	-0.10	0.00	0.00	-22.75	7.333	-0.02724	7.13416	2.0
33.5739	66.6702	-0.10	0.00	0.00	-22.75	7.333	-0.02973	7.13415	2.0
33.5939	66.6702	-0.10	0.00	0.00	-22.75	7.333	-0.03222	7.13414	0.0
33.6139	66.6702	-0.10	0.00	0.00	-22.75	7.333	-0.03471	7.13413	0.0
33.6339	66.6702	-0.10	0.00	0.00	-22.75	7.333	-0.03721	7.13411	2.0
33.6539	66.6702	-0.10	0.00	0.00	-22.75	7.333	-0.03970	7.13410	0.0
33.6739	66.6702	-0.10	0.00	0.00	-22.75	7.333	-0.04219	7.13409	2.0
33.6939	66.6702	-0.10	0.00	0.00	-22.75	7.333	-0.04468	7.13407	0.0
33.7139	66.6702	-0.10	0.00	0.00	-22.75	7.333	-0.04717	7.13406	2.0
33.7339	66.6702	-0.10	0.00	0.00	-22.75	7.333	-0.04966	7.13404	0.0
33.7539	66.6702	-0.10	0.00	0.00	-22.75	7.333	-0.05215	7.13402	0.0
33.7739	66.6702	-0.10	0.00	0.00	-22.75	7.333	-0.05464	7.13400	2.0
33.7939	66.6702	-0.10	0.00	0.00	-22.75	7.333	-0.05713	7.13398	0.0
33.8139	66.6702	-0.10	0.00	0.00	-22.75	7.333	-0.05962	7.13396	2.0
33.8339	66.6702	-0.10	0.00	0.00	-22.75	7.333	-0.06211	7.13394	0.0
33.8539	66.6702	-0.10	0.00	0.00	-22.75	7.333	-0.06460	7.13392	4.0
33.8739	66.6702	-0.10	0.00	0.00	-22.75	7.333	-0.06709	7.13390	2.0
33.8939	66.6702	-0.10	0.00	0.00	-22.75	7.333	-0.06958	7.13387	0.0
33.9139	66.6702	-0.10	0.00	0.00	-22.75	7.333	-0.07207	7.13385	0.0
33.9339	66.6702	-0.10	0.00	0.00	-22.75	7.333	-0.07456	7.13382	0.0
33.9539	66.6702	-0.10	0.00	0.00	-22.75	7.333	-0.07705	7.13380	0.0
33.9739	66.6702	-0.10	0.00	0.00	-22.75	7.333	-0.07954	7.13377	0.0
33.9939	66.6702	-0.10	0.00	0.00	-22.75	7.333	-0.08203	7.13374	0.0
34.0139	66.6702	-0.10	0.00	0.00	-22.75	7.333	-0.08452	7.13371	2.0
34.0339	66.6702	-0.10	0.00	0.00	-22.75	7.333	-0.08701	7.13368	0.0
34.0539	66.6702	-0.10	0.00	0.00	-22.75	7.333	-0.08950	7.13365	0.0
34.0739	66.6702	-0.10	0.00	0.00	-22.75	7.333	-0.09199	7.13362	0.0
34.0939	66.6702	-0.10	0.00	0.00	-22.75	7.333	-0.09448	7.13359	0.0
34.1139	66.6702	-0.10	0.00	0.00	-22.75	7.333	-0.09697	7.13355	2.0
34.1339	66.6702	-0.10	0.00	0.00	-22.75	7.333	-0.09946	7.13352	0.0
34.1539	66.6702	-0.10	0.00	0.00	-22.75	7.333	-0.10195	7.13348	2.0
34.1739	66.6702	-0.10	0.00	0.00	-22.75	7.333	-0.10444	7.13345	0.0
34.1939	66.6702	-0.10	0.00	0.00	-22.75	7.333	-0.10693	7.13341	0.0
34.2139	66.6702	-0.10	0.00	0.00	-22.75	7.333	-0.10942	7.13337	0.0
34.2339	66.6702	-0.10	0.00	0.00	-22.75	7.333	-0.11191	7.13333	0.0
34.2539	66.6702	-0.10	0.00	0.00	-22.75	7.333	-0.11440	7.13329	0.0
34.2739	66.6702	-0.10	0.00	0.00	-22.75	7.333	-0.11689	7.13325	0.0
34.2939	66.6702	-0.10	0.00	0.00	-22.75	7.333	-0.11938	7.13321	2.0
34.3139	66.6702	-0.10	0.00	0.00	-22.75	7.333	-0.12187	7.13317	0.0
34.3339	66.6702	-0.10	0.00	0.00	-22.75	7.333	-0.12436	7.13313	0.0
34.3539	66.6702	-0.10	0.00	0.00	-22.75	7.333	-0.12685	7.13308	0.0
34.3739	66.6702	-0.10	0.00	0.00	-22.75	7.333	-0.12934	7.13304	2.0
34.3939	66.6702	-0.10	0.00	0.00	-22.75	7.333	-0.13183	7.13299	2.0
34.4139	66.6702	-0.10	0.00	0.00	-22.75	7.333	-0.13432	7.13295	2.0
34.4339	66.6702	-0.10	0.00	0.00	-22.75	7.333	-0.13681	7.13290	4.0
34.4539	66.6702	-0.10	0.00	0.00	-22.75	7.333	-0.13930	7.13285	0.0
34.4739	66.6702	-0.10	0.00	0.00	-22.75	7.333	-0.14179	7.13280	0.0
34.4939	66.6702	-0.10	0.00	0.00	-22.75	7.333	-0.14428	7.13275	0.0
34.5139	66.6702	-0.10	0.00	0.00	-22.75	7.333	-0.14677	7.13270	0.0
34.5339	66.6702	-0.10	0.00	0.00	-22.75	7.333	-0.14926	7.13265	0.0
34.5539	66.6702	-0.10	0.00	0.00	-22.75	7.333	-0.15175	7.13260	0.0
34.5739	66.6702	-0.10	0.00	0.00	-22.75	7.333	-0.15424	7.13254	2.0
34.5939	66.6702	-0.10	0.00	0.00	-22.75	7.333	-0.15673	7.13249	6.0
34.6139	66.6702	-0.10	0.00	0.00	-22.75	7.333	-0.15922	7.13243	0.0
34.6339	66.6702	-0.10	0.00	0.00	-22.75	7.333	-0.16171	7.13238	2.0
34.6539	66.6702	-0.10	0.00	0.00	-22.75	7.333	-0.16420	7.13232	2.0
34.6739	66.6702	-0.10	0.00	0.00	-22.75	7.333	-0.16669	7.13226	0.0
34.6939	66.6702	-0.10	0.00	0.00	-22.75	7.333	-0.16918	7.13221	2.0
34.7139	66.6702	-0.10	0.00	0.00	-22.75	7.333	-0.17167	7.13215	6.0
34.7339	66.6702	-0.10	0.00	0.00	-22.75	7.333	-0.17415	7.13209	2.0
34.7539	66.6702	-0.10	0.00	0.00	-22.75	7.333	-0.17664	7.13202	0.0
34.7739	66.6702	-0.10	0.00	0.00	-22.75	7.333	-0.17913	7.13196	0.0
34.7939	66.6702	-0.10	0.00	0.00	-22.75	7.333	-0.18162	7.13190	2.0
34.8139	66.6702	-0.10	0.00	0.00	-22.75	7.333	-0.18411	7.13184	0.0
34.8339	66.6702	-0.10	0.00	0.00	-22.75	7.333	-0.18660	7.13177	0.0
34.8539	66.6702	-0.10	0.00	0.00	-22.75	7.333	-0.18909	7.13170	2.0

32.8639	66.6902	-0.10	0.00	0.00	-22.75	7.333	0.05993	7.13585	2.0
32.8839	66.6902	-0.10	0.00	0.00	-22.75	7.333	0.05744	7.13587	2.0
32.9039	66.6902	-0.10	0.00	0.00	-22.75	7.333	0.05495	7.13589	2.0
32.9239	66.6902	-0.10	0.00	0.00	-22.75	7.333	0.05246	7.13591	0.0
32.9439	66.6902	-0.10	0.00	0.00	-22.75	7.333	0.04997	7.13593	2.0
32.9639	66.6902	-0.10	0.00	0.00	-22.75	7.333	0.04748	7.13595	0.0
32.9839	66.6902	-0.10	0.00	0.00	-22.75	7.333	0.04499	7.13596	2.0
33.0039	66.6902	-0.10	0.00	0.00	-22.75	7.333	0.04250	7.13598	6.0
33.0239	66.6902	-0.10	0.00	0.00	-22.75	7.333	0.04000	7.13599	6.0
33.0439	66.6902	-0.10	0.00	0.00	-22.75	7.333	0.03751	7.13601	2.0
33.0639	66.6902	-0.10	0.00	0.00	-22.75	7.333	0.03502	7.13602	0.0
33.0839	66.6902	-0.10	0.00	0.00	-22.75	7.333	0.03253	7.13603	0.0
33.1039	66.6902	-0.10	0.00	0.00	-22.75	7.333	0.03004	7.13604	0.0
33.1239	66.6902	-0.10	0.00	0.00	-22.75	7.333	0.02755	7.13605	2.0
33.1439	66.6902	-0.10	0.00	0.00	-22.75	7.333	0.02506	7.13606	2.0
33.1639	66.6902	-0.10	0.00	0.00	-22.75	7.333	0.02257	7.13607	0.0
33.1839	66.6902	-0.10	0.00	0.00	-22.75	7.333	0.02008	7.13608	4.0
33.2039	66.6902	-0.10	0.00	0.00	-22.75	7.333	0.01759	7.13608	0.0
33.2239	66.6902	-0.10	0.00	0.00	-22.75	7.333	0.01510	7.13609	0.0
33.2439	66.6902	-0.10	0.00	0.00	-22.75	7.333	0.01260	7.13609	2.0
33.2639	66.6902	-0.10	0.00	0.00	-22.75	7.333	0.01011	7.13610	0.0
33.2839	66.6902	-0.10	0.00	0.00	-22.75	7.333	0.00762	7.13610	2.0
33.3039	66.6902	-0.10	0.00	0.00	-22.75	7.333	0.00513	7.13610	0.0
33.3239	66.6902	-0.10	0.00	0.00	-22.75	7.333	0.00264	7.13610	0.0
33.3439	66.6902	-0.10	0.00	0.00	-22.75	7.333	0.00015	7.13610	2.0
33.3639	66.6902	-0.10	0.00	0.00	-22.75	7.333	-0.00234	7.13610	0.0
33.3839	66.6902	-0.10	0.00	0.00	-22.75	7.333	-0.00483	7.13610	4.0
33.4039	66.6902	-0.10	0.00	0.00	-22.75	7.333	-0.00732	7.13610	0.0
33.4239	66.6902	-0.10	0.00	0.00	-22.75	7.333	-0.00981	7.13610	0.0
33.4439	66.6902	-0.10	0.00	0.00	-22.75	7.333	-0.01231	7.13609	2.0
33.4639	66.6902	-0.10	0.00	0.00	-22.75	7.333	-0.01480	7.13609	2.0
33.4839	66.6902	-0.10	0.00	0.00	-22.75	7.333	-0.01729	7.13608	2.0
33.5039	66.6902	-0.10	0.00	0.00	-22.75	7.333	-0.01978	7.13608	2.0
33.5239	66.6902	-0.10	0.00	0.00	-22.75	7.333	-0.02227	7.13607	2.0
33.5439	66.6902	-0.10	0.00	0.00	-22.75	7.333	-0.02476	7.13606	0.0
33.5639	66.6902	-0.10	0.00	0.00	-22.75	7.333	-0.02725	7.13605	6.0
33.5839	66.6902	-0.10	0.00	0.00	-22.75	7.333	-0.02974	7.13604	0.0
33.6039	66.6902	-0.10	0.00	0.00	-22.75	7.333	-0.03223	7.13603	0.0
33.6239	66.6902	-0.10	0.00	0.00	-22.75	7.333	-0.03472	7.13602	2.0
33.6439	66.6902	-0.10	0.00	0.00	-22.75	7.333	-0.03721	7.13601	2.0
33.6639	66.6902	-0.10	0.00	0.00	-22.75	7.333	-0.03971	7.13599	0.0
33.6839	66.6902	-0.10	0.00	0.00	-22.75	7.333	-0.04220	7.13598	4.0
33.7039	66.6902	-0.10	0.00	0.00	-22.75	7.333	-0.04469	7.13596	0.0
33.7239	66.6902	-0.10	0.00	0.00	-22.75	7.333	-0.04718	7.13595	0.0
33.7439	66.6902	-0.10	0.00	0.00	-22.75	7.333	-0.04967	7.13593	2.0
33.7639	66.6902	-0.10	0.00	0.00	-22.75	7.333	-0.05216	7.13591	0.0
33.7839	66.6902	-0.10	0.00	0.00	-22.75	7.333	-0.05465	7.13589	0.0
33.8039	66.6902	-0.10	0.00	0.00	-22.75	7.333	-0.05714	7.13588	0.0
33.8239	66.6902	-0.10	0.00	0.00	-22.75	7.333	-0.05963	7.13586	2.0
33.8439	66.6902	-0.10	0.00	0.00	-22.75	7.333	-0.06212	7.13583	0.0
33.8639	66.6902	-0.10	0.00	0.00	-22.75	7.333	-0.06461	7.13581	0.0
33.8839	66.6902	-0.10	0.00	0.00	-22.75	7.333	-0.06711	7.13579	0.0
33.9039	66.6902	-0.10	0.00	0.00	-22.75	7.333	-0.06960	7.13576	2.0
33.9239	66.6902	-0.10	0.00	0.00	-22.75	7.333	-0.07209	7.13574	4.0
33.9439	66.6902	-0.10	0.00	0.00	-22.75	7.333	-0.07458	7.13571	0.0
33.9639	66.6902	-0.10	0.00	0.00	-22.75	7.333	-0.07707	7.13569	2.0
33.9839	66.6902	-0.10	0.00	0.00	-22.75	7.333	-0.07956	7.13566	0.0
34.0039	66.6902	-0.10	0.00	0.00	-22.75	7.333	-0.08205	7.13563	0.0
34.0239	66.6902	-0.10	0.00	0.00	-22.75	7.333	-0.08454	7.13560	0.0
34.0439	66.6902	-0.10	0.00	0.00	-22.75	7.333	-0.08703	7.13557	0.0
34.0639	66.6902	-0.10	0.00	0.00	-22.75	7.333	-0.08952	7.13554	2.0
34.0839	66.6902	-0.10	0.00	0.00	-22.75	7.333	-0.09201	7.13551	0.0
34.1039	66.6902	-0.10	0.00	0.00	-22.75	7.333	-0.09450	7.13548	0.0
34.1239	66.6902	-0.10	0.00	0.00	-22.75	7.333	-0.09700	7.13544	2.0
34.1439	66.6902	-0.10	0.00	0.00	-22.75	7.333	-0.09949	7.13541	0.0
34.1639	66.6902	-0.10	0.00	0.00	-22.75	7.333	-0.10198	7.13538	0.0
34.1839	66.6902	-0.10	0.00	0.00	-22.75	7.333	-0.10447	7.13534	0.0
34.2039	66.6902	-0.10	0.00	0.00	-22.75	7.333	-0.10696	7.13530	0.0
34.2239	66.6902	-0.10	0.00	0.00	-22.75	7.333	-0.10945	7.13526	4.0
34.2439	66.6902	-0.10	0.00	0.00	-22.75	7.333	-0.11194	7.13523	2.0
34.2639	66.6902	-0.10	0.00	0.00	-22.75	7.333	-0.11443	7.13519	0.0
34.2839	66.6902	-0.10	0.00	0.00	-22.75	7.333	-0.11692	7.13515	4.0
34.3039	66.6902	-0.10	0.00	0.00	-22.75	7.333	-0.11941	7.13511	2.0
34.3239	66.6902	-0.10	0.00	0.00	-22.75	7.333	-0.12190	7.13506	0.0
34.3439	66.6902	-0.10	0.00	0.00	-22.75	7.333	-0.12439	7.13502	0.0
34.3639	66.6902	-0.10	0.00	0.00	-22.75	7.333	-0.12688	7.13498	2.0
34.3839	66.6902	-0.10	0.00	0.00	-22.75	7.333	-0.12937	7.13493	4.0
34.4039	66.6902	-0.10	0.00	0.00	-22.75	7.333	-0.13186	7.13489	2.0
34.4239	66.6902	-0.10	0.00	0.00	-22.75	7.333	-0.13435	7.13484	0.0
34.4439	66.6902	-0.10	0.00	0.00	-22.75	7.333	-0.13685	7.13479	0.0
34.4639	66.6902	-0.10	0.00	0.00	-22.75	7.333	-0.13934	7.13474	0.0
34.4839	66.6902	-0.10	0.00	0.00	-22.75	7.333	-0.14183	7.13469	2.0
34.5039	66.6902	-0.10	0.00	0.00	-22.75	7.333	-0.14432	7.13464	0.0
34.5239	66.6902	-0.10	0.00	0.00	-22.75	7.333	-0.14681	7.13459	4.0
34.5439	66.6902	-0.10	0.00	0.00	-22.75	7.333	-0.14930	7.13454	2.0
34.5639	66.6902	-0.10	0.00	0.00	-22.75	7.333	-0.15179	7.13449	0.0
34.5839	66.6902	-0.10	0.00	0.00	-22.75	7.333	-0.15428	7.13444	0.0
34.6039	66.6902	-0.10	0.00	0.00	-22.75	7.333	-0.15677	7.13438	2.0
34.6239	66.6902	-0.10	0.00	0.00	-22.75	7.333	-0.15926	7.13433	0.0
34.6439	66.6902	-0.10	0.00	0.00	-22.75	7.333	-0.16175	7.13427	0.0
34.6639	66.6902	-0.10	0.00	0.00	-22.75	7.333	-0.16424	7.13421	2.0
34.6839	66.6902	-0.10	0.00	0.00	-22.75	7.333	-0.16673	7.13416	0.0
34.7039	66.6902	-0.10	0.00	0.00	-22.75	7.333	-0.16922	7.13410	2.0
34.7239	66.6902	-0.10	0.00	0.00	-22.75	7.333	-0.17171	7.13404	0.0
34.7439	66.6902	-0.10	0.00	0.00	-22.75	7.333	-0.17420	7.13398	0.0
34.7639	66.6902	-0.10	0.00	0.00	-22.75	7.333	-0.17669	7.13392	0.0
34.7839	66.6902	-0.10	0.00	0.00	-22.75	7.333	-0.17918	7.13385	0.0
34.8039	66.6902	-0.10	0.00	0.00	-22.75	7.333	-0.18167	7.13379	2.0
34.8239	66.6902	-0.10	0.00	0.00	-22.75	7.333	-0.18416	7.13373	0.0
34.8439	66.6902	-0.10	0.00	0.00	-22.75	7.333	-0.18665	7.13366	0.0
34.8639	66.6902	-0.10	0.00	0.00	-22.75	7.333	-0.18914	7.13360	0.0

32.8739	66.7102	-0.10	0.00	0.00	-22.75	7.333	0.05995	7.13775	0.0
32.8939	66.7102	-0.10	0.00	0.00	-22.75	7.333	0.05746	7.13777	0.0
32.9139	66.7102	-0.10	0.00	0.00	-22.75	7.333	0.05496	7.13779	0.0
32.9339	66.7102	-0.10	0.00	0.00	-22.75	7.333	0.05247	7.13780	0.0
32.9539	66.7102	-0.10	0.00	0.00	-22.75	7.333	0.04998	7.13782	0.0
32.9739	66.7102	-0.10	0.00	0.00	-22.75	7.333	0.04749	7.13784	0.0
32.9939	66.7102	-0.10	0.00	0.00	-22.75	7.333	0.04500	7.13786	0.0
33.0139	66.7102	-0.10	0.00	0.00	-22.75	7.333	0.04251	7.13787	0.0
33.0339	66.7102	-0.10	0.00	0.00	-22.75	7.333	0.04002	7.13788	2.0
33.0539	66.7102	-0.10	0.00	0.00	-22.75	7.333	0.03752	7.13790	0.0
33.0739	66.7102	-0.10	0.00	0.00	-22.75	7.333	0.03503	7.13791	0.0
33.0939	66.7102	-0.10	0.00	0.00	-22.75	7.333	0.03254	7.13792	2.0
33.1139	66.7102	-0.10	0.00	0.00	-22.75	7.333	0.03005	7.13793	8.0
33.1339	66.7102	-0.10	0.00	0.00	-22.75	7.333	0.02756	7.13794	0.0
33.1539	66.7102	-0.10	0.00	0.00	-22.75	7.333	0.02507	7.13795	0.0
33.1739	66.7102	-0.10	0.00	0.00	-22.75	7.333	0.02257	7.13796	0.0
33.1939	66.7102	-0.10	0.00	0.00	-22.75	7.333	0.02008	7.13797	4.0
33.2139	66.7102	-0.10	0.00	0.00	-22.75	7.333	0.01759	7.13798	0.0
33.2339	66.7102	-0.10	0.00	0.00	-22.75	7.333	0.01510	7.13798	0.0
33.2539	66.7102	-0.10	0.00	0.00	-22.75	7.333	0.01261	7.13799	2.0
33.2739	66.7102	-0.10	0.00	0.00	-22.75	7.333	0.01012	7.13799	4.0
33.2939	66.7102	-0.10	0.00	0.00	-22.75	7.333	0.00762	7.13799	2.0
33.3139	66.7102	-0.10	0.00	0.00	-22.75	7.333	0.00513	7.13800	2.0
33.3339	66.7102	-0.10	0.00	0.00	-22.75	7.333	0.00264	7.13800	2.0
33.3539	66.7102	-0.10	0.00	0.00	-22.75	7.333	0.00015	7.13800	0.0
33.3739	66.7102	-0.10	0.00	0.00	-22.75	7.333	-0.00234	7.13800	0.0
33.3939	66.7102	-0.10	0.00	0.00	-22.75	7.333	-0.00483	7.13800	4.0
33.4139	66.7102	-0.10	0.00	0.00	-22.75	7.333	-0.00733	7.13799	2.0
33.4339	66.7102	-0.10	0.00	0.00	-22.75	7.333	-0.00982	7.13799	2.0
33.4539	66.7102	-0.10	0.00	0.00	-22.75	7.333	-0.01231	7.13799	0.0
33.4739	66.7102	-0.10	0.00	0.00	-22.75	7.333	-0.01480	7.13798	2.0
33.4939	66.7102	-0.10	0.00	0.00	-22.75	7.333	-0.01729	7.13798	4.0
33.5139	66.7102	-0.10	0.00	0.00	-22.75	7.333	-0.01978	7.13797	2.0
33.5339	66.7102	-0.10	0.00	0.00	-22.75	7.333	-0.02228	7.13796	2.0
33.5539	66.7102	-0.10	0.00	0.00	-22.75	7.333	-0.02477	7.13795	2.0
33.5739	66.7102	-0.10	0.00	0.00	-22.75	7.333	-0.02726	7.13794	2.0
33.5939	66.7102	-0.10	0.00	0.00	-22.75	7.333	-0.02975	7.13793	0.0
33.6139	66.7102	-0.10	0.00	0.00	-22.75	7.333	-0.03224	7.13792	0.0
33.6339	66.7102	-0.10	0.00	0.00	-22.75	7.333	-0.03473	7.13791	2.0
33.6539	66.7102	-0.10	0.00	0.00	-22.75	7.333	-0.03722	7.13790	2.0
33.6739	66.7102	-0.10	0.00	0.00	-22.75	7.333	-0.03972	7.13789	0.0
33.6939	66.7102	-0.10	0.00	0.00	-22.75	7.333	-0.04221	7.13787	2.0
33.7139	66.7102	-0.10	0.00	0.00	-22.75	7.333	-0.04470	7.13786	2.0
33.7339	66.7102	-0.10	0.00	0.00	-22.75	7.333	-0.04719	7.13784	0.0
33.7539	66.7102	-0.10	0.00	0.00	-22.75	7.333	-0.04968	7.13782	0.0
33.7739	66.7102	-0.10	0.00	0.00	-22.75	7.333	-0.05217	7.13781	6.0
33.7939	66.7102	-0.10	0.00	0.00	-22.75	7.333	-0.05467	7.13779	0.0
33.8139	66.7102	-0.10	0.00	0.00	-22.75	7.333	-0.05716	7.13777	2.0
33.8339	66.7102	-0.10	0.00	0.00	-22.75	7.333	-0.05965	7.13775	0.0
33.8539	66.7102	-0.10	0.00	0.00	-22.75	7.333	-0.06214	7.13773	0.0
33.8739	66.7102	-0.10	0.00	0.00	-22.75	7.333	-0.06463	7.13770	0.0
33.8939	66.7102	-0.10	0.00	0.00	-22.75	7.333	-0.06712	7.13768	4.0
33.9139	66.7102	-0.10	0.00	0.00	-22.75	7.333	-0.06962	7.13766	0.0
33.9339	66.7102	-0.10	0.00	0.00	-22.75	7.333	-0.07211	7.13763	6.0
33.9539	66.7102	-0.10	0.00	0.00	-22.75	7.333	-0.07460	7.13761	0.0
33.9739	66.7102	-0.10	0.00	0.00	-22.75	7.333	-0.07709	7.13758	0.0
33.9939	66.7102	-0.10	0.00	0.00	-22.75	7.333	-0.07958	7.13755	0.0
34.0139	66.7102	-0.10	0.00	0.00	-22.75	7.333	-0.08207	7.13753	0.0
34.0339	66.7102	-0.10	0.00	0.00	-22.75	7.333	-0.08456	7.13750	2.0
34.0539	66.7102	-0.10	0.00	0.00	-22.75	7.333	-0.08706	7.13747	2.0
34.0739	66.7102	-0.10	0.00	0.00	-22.75	7.333	-0.08955	7.13744	0.0
34.0939	66.7102	-0.10	0.00	0.00	-22.75	7.333	-0.09204	7.13740	0.0
34.1139	66.7102	-0.10	0.00	0.00	-22.75	7.333	-0.09453	7.13737	0.0
34.1339	66.7102	-0.10	0.00	0.00	-22.75	7.333	-0.09702	7.13734	0.0
34.1539	66.7102	-0.10	0.00	0.00	-22.75	7.333	-0.09951	7.13730	2.0
34.1739	66.7102	-0.10	0.00	0.00	-22.75	7.333	-0.10200	7.13727	0.0
34.1939	66.7102	-0.10	0.00	0.00	-22.75	7.333	-0.10450	7.13723	0.0
34.2139	66.7102	-0.10	0.00	0.00	-22.75	7.333	-0.10699	7.13720	0.0
34.2339	66.7102	-0.10	0.00	0.00	-22.75	7.333	-0.10948	7.13716	0.0
34.2539	66.7102	-0.10	0.00	0.00	-22.75	7.333	-0.11197	7.13712	0.0
34.2739	66.7102	-0.10	0.00	0.00	-22.75	7.333	-0.11446	7.13708	0.0
34.2939	66.7102	-0.10	0.00	0.00	-22.75	7.333	-0.11695	7.13704	0.0
34.3139	66.7102	-0.10	0.00	0.00	-22.75	7.333	-0.11944	7.13700	0.0
34.3339	66.7102	-0.10	0.00	0.00	-22.75	7.333	-0.12193	7.13696	0.0
34.3539	66.7102	-0.10	0.00	0.00	-22.75	7.333	-0.12443	7.13691	0.0
34.3739	66.7102	-0.10	0.00	0.00	-22.75	7.333	-0.12692	7.13687	0.0
34.3939	66.7102	-0.10	0.00	0.00	-22.75	7.333	-0.12941	7.13682	2.0
34.4139	66.7102	-0.10	0.00	0.00	-22.75	7.333	-0.13190	7.13678	0.0
34.4339	66.7102	-0.10	0.00	0.00	-22.75	7.333	-0.13439	7.13673	2.0
34.4539	66.7102	-0.10	0.00	0.00	-22.75	7.333	-0.13688	7.13668	0.0
34.4739	66.7102	-0.10	0.00	0.00	-22.75	7.333	-0.13937	7.13664	0.0
34.4939	66.7102	-0.10	0.00	0.00	-22.75	7.333	-0.14186	7.13659	0.0
34.5139	66.7102	-0.10	0.00	0.00	-22.75	7.333	-0.14436	7.13654	0.0
34.5339	66.7102	-0.10	0.00	0.00	-22.75	7.333	-0.14685	7.13649	2.0
34.5539	66.7102	-0.10	0.00	0.00	-22.75	7.333	-0.14934	7.13643	0.0
34.5739	66.7102	-0.10	0.00	0.00	-22.75	7.333	-0.15183	7.13638	0.0
34.5939	66.7102	-0.10	0.00	0.00	-22.75	7.333	-0.15432	7.13633	0.0
34.6139	66.7102	-0.10	0.00	0.00	-22.75	7.333	-0.15681	7.13627	0.0
34.6339	66.7102	-0.10	0.00	0.00	-22.75	7.333	-0.15930	7.13622	2.0
34.6539	66.7102	-0.10	0.00	0.00	-22.75	7.333	-0.16179	7.13616	0.0
34.6739	66.7102	-0.10	0.00	0.00	-22.75	7.333	-0.16428	7.13611	0.0
34.6939	66.7102	-0.10	0.00	0.00	-22.75	7.333	-0.16677	7.13605	2.0
34.7139	66.7102	-0.10	0.00	0.00	-22.75	7.333	-0.16927	7.13599	0.0
34.7339	66.7102	-0.10	0.00	0.00	-22.75	7.333	-0.17176	7.13593	2.0
34.7539	66.7102	-0.10	0.00	0.00	-22.75	7.333	-0.17425	7.13587	0.0
34.7739	66.7102	-0.10	0.00	0.00	-22.75	7.333	-0.17674	7.13581	2.0
34.7939	66.7102	-0.10	0.00	0.00	-22.75	7.333	-0.17923	7.13575	2.0
34.8139	66.7102	-0.10	0.00	0.00	-22.75	7.333	-0.18172	7.13568	0.0
34.8339	66.7102	-0.10	0.00	0.00	-22.75	7.333	-0.18421	7.13562	2.0
34.8539	66.7102	-0.10	0.00	0.00	-22.75	7.333	-0.18670	7.13555	0.0
34.8739	66.7102	-0.10	0.00	0.00	-22.75	7.333	-0.18919	7.13549	0.0

32.8839	66.7302	-0.10	0.00	0.00	-22.75	7.333	0.05996	7.13964	0.0
32.9039	66.7302	-0.10	0.00	0.00	-22.75	7.333	0.05747	7.13966	2.0
32.9239	66.7302	-0.10	0.00	0.00	-22.75	7.333	0.05498	7.13968	0.0
32.9439	66.7302	-0.10	0.00	0.00	-22.75	7.333	0.05249	7.13970	0.0
32.9639	66.7302	-0.10	0.00	0.00	-22.75	7.333	0.04999	7.13971	0.0
32.9839	66.7302	-0.10	0.00	0.00	-22.75	7.333	0.04750	7.13973	2.0
33.0039	66.7302	-0.10	0.00	0.00	-22.75	7.333	0.04501	7.13975	2.0
33.0239	66.7302	-0.10	0.00	0.00	-22.75	7.333	0.04252	7.13976	4.0
33.0439	66.7302	-0.10	0.00	0.00	-22.75	7.333	0.04003	7.13978	0.0
33.0639	66.7302	-0.10	0.00	0.00	-22.75	7.333	0.03753	7.13979	0.0
33.0839	66.7302	-0.10	0.00	0.00	-22.75	7.333	0.03504	7.13980	0.0
33.1039	66.7302	-0.10	0.00	0.00	-22.75	7.333	0.03255	7.13982	0.0
33.1239	66.7302	-0.10	0.00	0.00	-22.75	7.333	0.03006	7.13983	0.0
33.1439	66.7302	-0.10	0.00	0.00	-22.75	7.333	0.02756	7.13984	0.0
33.1639	66.7302	-0.10	0.00	0.00	-22.75	7.333	0.02507	7.13985	0.0
33.1839	66.7302	-0.10	0.00	0.00	-22.75	7.333	0.02258	7.13985	2.0
33.2039	66.7302	-0.10	0.00	0.00	-22.75	7.333	0.02009	7.13986	0.0
33.2239	66.7302	-0.10	0.00	0.00	-22.75	7.333	0.01760	7.13987	0.0
33.2439	66.7302	-0.10	0.00	0.00	-22.75	7.333	0.01510	7.13987	2.0
33.2639	66.7302	-0.10	0.00	0.00	-22.75	7.333	0.01261	7.13988	2.0
33.2839	66.7302	-0.10	0.00	0.00	-22.75	7.333	0.01012	7.13988	4.0
33.3039	66.7302	-0.10	0.00	0.00	-22.75	7.333	0.00763	7.13989	0.0
33.3239	66.7302	-0.10	0.00	0.00	-22.75	7.333	0.00513	7.13989	0.0
33.3439	66.7302	-0.10	0.00	0.00	-22.75	7.333	0.00264	7.13989	0.0
33.3639	66.7302	-0.10	0.00	0.00	-22.75	7.333	0.00015	7.13989	0.0
33.3839	66.7302	-0.10	0.00	0.00	-22.75	7.333	-0.00234	7.13989	2.0
33.4039	66.7302	-0.10	0.00	0.00	-22.75	7.333	-0.00484	7.13989	0.0
33.4239	66.7302	-0.10	0.00	0.00	-22.75	7.333	-0.00733	7.13989	6.0
33.4439	66.7302	-0.10	0.00	0.00	-22.75	7.333	-0.00982	7.13988	4.0
33.4639	66.7302	-0.10	0.00	0.00	-22.75	7.333	-0.01231	7.13988	2.0
33.4839	66.7302	-0.10	0.00	0.00	-22.75	7.333	-0.01480	7.13987	0.0
33.5039	66.7302	-0.10	0.00	0.00	-22.75	7.333	-0.01730	7.13987	2.0
33.5239	66.7302	-0.10	0.00	0.00	-22.75	7.333	-0.01979	7.13986	0.0
33.5439	66.7302	-0.10	0.00	0.00	-22.75	7.333	-0.02228	7.13985	2.0
33.5639	66.7302	-0.10	0.00	0.00	-22.75	7.333	-0.02477	7.13985	0.0
33.5839	66.7302	-0.10	0.00	0.00	-22.75	7.333	-0.02727	7.13984	0.0
33.6039	66.7302	-0.10	0.00	0.00	-22.75	7.333	-0.02976	7.13983	0.0
33.6239	66.7302	-0.10	0.00	0.00	-22.75	7.333	-0.03225	7.13982	0.0
33.6439	66.7302	-0.10	0.00	0.00	-22.75	7.333	-0.03474	7.13980	4.0
33.6639	66.7302	-0.10	0.00	0.00	-22.75	7.333	-0.03723	7.13979	0.0
33.6839	66.7302	-0.10	0.00	0.00	-22.75	7.333	-0.03973	7.13978	2.0
33.7039	66.7302	-0.10	0.00	0.00	-22.75	7.333	-0.04222	7.13976	0.0
33.7239	66.7302	-0.10	0.00	0.00	-22.75	7.333	-0.04471	7.13975	2.0
33.7439	66.7302	-0.10	0.00	0.00	-22.75	7.333	-0.04720	7.13973	0.0
33.7639	66.7302	-0.10	0.00	0.00	-22.75	7.333	-0.04970	7.13972	0.0
33.7839	66.7302	-0.10	0.00	0.00	-22.75	7.333	-0.05219	7.13970	0.0
33.8039	66.7302	-0.10	0.00	0.00	-22.75	7.333	-0.05468	7.13968	0.0
33.8239	66.7302	-0.10	0.00	0.00	-22.75	7.333	-0.05717	7.13966	2.0
33.8439	66.7302	-0.10	0.00	0.00	-22.75	7.333	-0.05966	7.13964	2.0
33.8639	66.7302	-0.10	0.00	0.00	-22.75	7.333	-0.06216	7.13962	0.0
33.8839	66.7302	-0.10	0.00	0.00	-22.75	7.333	-0.06465	7.13960	2.0
33.9039	66.7302	-0.10	0.00	0.00	-22.75	7.333	-0.06714	7.13957	2.0
33.9239	66.7302	-0.10	0.00	0.00	-22.75	7.333	-0.06963	7.13955	2.0
33.9439	66.7302	-0.10	0.00	0.00	-22.75	7.333	-0.07213	7.13953	4.0
33.9639	66.7302	-0.10	0.00	0.00	-22.75	7.333	-0.07462	7.13950	0.0
33.9839	66.7302	-0.10	0.00	0.00	-22.75	7.333	-0.07711	7.13947	0.0
34.0039	66.7302	-0.10	0.00	0.00	-22.75	7.333	-0.07960	7.13945	0.0
34.0239	66.7302	-0.10	0.00	0.00	-22.75	7.333	-0.08209	7.13942	0.0
34.0439	66.7302	-0.10	0.00	0.00	-22.75	7.333	-0.08459	7.13939	0.0
34.0639	66.7302	-0.10	0.00	0.00	-22.75	7.333	-0.08708	7.13936	4.0
34.0839	66.7302	-0.10	0.00	0.00	-22.75	7.333	-0.08957	7.13933	0.0
34.1039	66.7302	-0.10	0.00	0.00	-22.75	7.333	-0.09206	7.13930	4.0
34.1239	66.7302	-0.10	0.00	0.00	-22.75	7.333	-0.09455	7.13926	2.0
34.1439	66.7302	-0.10	0.00	0.00	-22.75	7.333	-0.09705	7.13923	0.0
34.1639	66.7302	-0.10	0.00	0.00	-22.75	7.333	-0.09954	7.13920	0.0
34.1839	66.7302	-0.10	0.00	0.00	-22.75	7.333	-0.10203	7.13916	0.0
34.2039	66.7302	-0.10	0.00	0.00	-22.75	7.333	-0.10452	7.13912	0.0
34.2239	66.7302	-0.10	0.00	0.00	-22.75	7.333	-0.10701	7.13909	0.0
34.2439	66.7302	-0.10	0.00	0.00	-22.75	7.333	-0.10951	7.13905	0.0
34.2639	66.7302	-0.10	0.00	0.00	-22.75	7.333	-0.11200	7.13901	0.0
34.2839	66.7302	-0.10	0.00	0.00	-22.75	7.333	-0.11449	7.13897	0.0
34.3039	66.7302	-0.10	0.00	0.00	-22.75	7.333	-0.11698	7.13893	0.0
34.3239	66.7302	-0.10	0.00	0.00	-22.75	7.333	-0.11947	7.13889	0.0
34.3439	66.7302	-0.10	0.00	0.00	-22.75	7.333	-0.12197	7.13885	0.0
34.3639	66.7302	-0.10	0.00	0.00	-22.75	7.333	-0.12446	7.13880	2.0
34.3839	66.7302	-0.10	0.00	0.00	-22.75	7.333	-0.12695	7.13876	0.0
34.4039	66.7302	-0.10	0.00	0.00	-22.75	7.333	-0.12944	7.13872	2.0
34.4239	66.7302	-0.10	0.00	0.00	-22.75	7.333	-0.13193	7.13867	0.0
34.4439	66.7302	-0.10	0.00	0.00	-22.75	7.333	-0.13443	7.13862	0.0
34.4639	66.7302	-0.10	0.00	0.00	-22.75	7.333	-0.13692	7.13858	0.0
34.4839	66.7302	-0.10	0.00	0.00	-22.75	7.333	-0.13941	7.13853	4.0
34.5039	66.7302	-0.10	0.00	0.00	-22.75	7.333	-0.14190	7.13848	2.0
34.5239	66.7302	-0.10	0.00	0.00	-22.75	7.333	-0.14439	7.13843	0.0
34.5439	66.7302	-0.10	0.00	0.00	-22.75	7.333	-0.14689	7.13838	0.0
34.5639	66.7302	-0.10	0.00	0.00	-22.75	7.333	-0.14938	7.13833	0.0
34.5839	66.7302	-0.10	0.00	0.00	-22.75	7.333	-0.15187	7.13827	0.0
34.6039	66.7302	-0.10	0.00	0.00	-22.75	7.333	-0.15436	7.13822	2.0
34.6239	66.7302	-0.10	0.00	0.00	-22.75	7.333	-0.15685	7.13817	0.0
34.6439	66.7302	-0.10	0.00	0.00	-22.75	7.333	-0.15934	7.13811	0.0
34.6639	66.7302	-0.10	0.00	0.00	-22.75	7.333	-0.16184	7.13806	0.0
34.6839	66.7302	-0.10	0.00	0.00	-22.75	7.333	-0.16433	7.13800	0.0
34.7039	66.7302	-0.10	0.00	0.00	-22.75	7.333	-0.16682	7.13794	0.0
34.7239	66.7302	-0.10	0.00	0.00	-22.75	7.333	-0.16931	7.13788	0.0
34.7439	66.7302	-0.10	0.00	0.00	-22.75	7.333	-0.17180	7.13782	0.0
34.7639	66.7302	-0.10	0.00	0.00	-22.75	7.333	-0.17429	7.13776	0.0
34.7839	66.7302	-0.10	0.00	0.00	-22.75	7.333	-0.17679	7.13770	0.0
34.8039	66.7302	-0.10	0.00	0.00	-22.75	7.333	-0.17928	7.13764	0.0
34.8239	66.7302	-0.10	0.00	0.00	-22.75	7.333	-0.18177	7.13758	0.0
34.8439	66.7302	-0.10	0.00	0.00	-22.75	7.333	-0.18426	7.13751	0.0
34.8639	66.7302	-0.10	0.00	0.00	-22.75	7.333	-0.18675	7.13745	0.0
34.8839	66.7302	-0.10	0.00	0.00	-22.75	7.333	-0.18924	7.13738	2.0

32.8939	66.7502	-0.10	0.00	0.00	-22.75	7.333	0.05998	7.14153	0.0
32.9139	66.7502	-0.10	0.00	0.00	-22.75	7.333	0.05749	7.14155	2.0
32.9339	66.7502	-0.10	0.00	0.00	-22.75	7.333	0.05499	7.14157	0.0
32.9539	66.7502	-0.10	0.00	0.00	-22.75	7.333	0.05250	7.14159	0.0
32.9739	66.7502	-0.10	0.00	0.00	-22.75	7.333	0.05001	7.14161	2.0
32.9939	66.7502	-0.10	0.00	0.00	-22.75	7.333	0.04752	7.14162	2.0
33.0139	66.7502	-0.10	0.00	0.00	-22.75	7.333	0.04502	7.14164	0.0
33.0339	66.7502	-0.10	0.00	0.00	-22.75	7.333	0.04253	7.14166	0.0
33.0539	66.7502	-0.10	0.00	0.00	-22.75	7.333	0.04004	7.14167	0.0
33.0739	66.7502	-0.10	0.00	0.00	-22.75	7.333	0.03754	7.14168	0.0
33.0939	66.7502	-0.10	0.00	0.00	-22.75	7.333	0.03505	7.14170	0.0
33.1139	66.7502	-0.10	0.00	0.00	-22.75	7.333	0.03256	7.14171	2.0
33.1339	66.7502	-0.10	0.00	0.00	-22.75	7.333	0.03006	7.14172	0.0
33.1539	66.7502	-0.10	0.00	0.00	-22.75	7.333	0.02757	7.14173	2.0
33.1739	66.7502	-0.10	0.00	0.00	-22.75	7.333	0.02508	7.14174	2.0
33.1939	66.7502	-0.10	0.00	0.00	-22.75	7.333	0.02259	7.14175	0.0
33.2139	66.7502	-0.10	0.00	0.00	-22.75	7.333	0.02009	7.14175	0.0
33.2339	66.7502	-0.10	0.00	0.00	-22.75	7.333	0.01760	7.14176	6.0
33.2539	66.7502	-0.10	0.00	0.00	-22.75	7.333	0.01511	7.14177	0.0
33.2739	66.7502	-0.10	0.00	0.00	-22.75	7.333	0.01261	7.14177	0.0
33.2939	66.7502	-0.10	0.00	0.00	-22.75	7.333	0.01012	7.14177	0.0
33.3139	66.7502	-0.10	0.00	0.00	-22.75	7.333	0.00763	7.14178	0.0
33.3339	66.7502	-0.10	0.00	0.00	-22.75	7.333	0.00514	7.14178	0.0
33.3539	66.7502	-0.10	0.00	0.00	-22.75	7.333	0.00264	7.14178	0.0
33.3739	66.7502	-0.10	0.00	0.00	-22.75	7.333	0.00015	7.14178	0.0
33.3939	66.7502	-0.10	0.00	0.00	-22.75	7.333	-0.00234	7.14178	0.0
33.4139	66.7502	-0.10	0.00	0.00	-22.75	7.333	-0.00484	7.14178	2.0
33.4339	66.7502	-0.10	0.00	0.00	-22.75	7.333	-0.00733	7.14178	4.0
33.4539	66.7502	-0.10	0.00	0.00	-22.75	7.333	-0.00982	7.14177	2.0
33.4739	66.7502	-0.10	0.00	0.00	-22.75	7.333	-0.01232	7.14177	0.0
33.4939	66.7502	-0.10	0.00	0.00	-22.75	7.333	-0.01481	7.14177	2.0
33.5139	66.7502	-0.10	0.00	0.00	-22.75	7.333	-0.01730	7.14176	4.0
33.5339	66.7502	-0.10	0.00	0.00	-22.75	7.333	-0.01979	7.14175	0.0
33.5539	66.7502	-0.10	0.00	0.00	-22.75	7.333	-0.02229	7.14175	2.0
33.5739	66.7502	-0.10	0.00	0.00	-22.75	7.333	-0.02478	7.14174	0.0
33.5939	66.7502	-0.10	0.00	0.00	-22.75	7.333	-0.02727	7.14173	2.0
33.6139	66.7502	-0.10	0.00	0.00	-22.75	7.333	-0.02977	7.14172	2.0
33.6339	66.7502	-0.10	0.00	0.00	-22.75	7.333	-0.03226	7.14171	0.0
33.6539	66.7502	-0.10	0.00	0.00	-22.75	7.333	-0.03475	7.14170	4.0
33.6739	66.7502	-0.10	0.00	0.00	-22.75	7.333	-0.03724	7.14168	0.0
33.6939	66.7502	-0.10	0.00	0.00	-22.75	7.333	-0.03974	7.14167	0.0
33.7139	66.7502	-0.10	0.00	0.00	-22.75	7.333	-0.04223	7.14166	6.0
33.7339	66.7502	-0.10	0.00	0.00	-22.75	7.333	-0.04472	7.14164	0.0
33.7539	66.7502	-0.10	0.00	0.00	-22.75	7.333	-0.04722	7.14163	4.0
33.7739	66.7502	-0.10	0.00	0.00	-22.75	7.333	-0.04971	7.14161	0.0
33.7939	66.7502	-0.10	0.00	0.00	-22.75	7.333	-0.05220	7.14159	0.0
33.8139	66.7502	-0.10	0.00	0.00	-22.75	7.333	-0.05469	7.14157	2.0
33.8339	66.7502	-0.10	0.00	0.00	-22.75	7.333	-0.05719	7.14155	2.0
33.8539	66.7502	-0.10	0.00	0.00	-22.75	7.333	-0.05968	7.14153	0.0
33.8739	66.7502	-0.10	0.00	0.00	-22.75	7.333	-0.06217	7.14151	0.0
33.8939	66.7502	-0.10	0.00	0.00	-22.75	7.333	-0.06467	7.14149	0.0
33.9139	66.7502	-0.10	0.00	0.00	-22.75	7.333	-0.06716	7.14147	2.0
33.9339	66.7502	-0.10	0.00	0.00	-22.75	7.333	-0.06965	7.14144	4.0
33.9539	66.7502	-0.10	0.00	0.00	-22.75	7.333	-0.07214	7.14142	0.0
33.9739	66.7502	-0.10	0.00	0.00	-22.75	7.333	-0.07464	7.14139	0.0
33.9939	66.7502	-0.10	0.00	0.00	-22.75	7.333	-0.07713	7.14137	0.0
34.0139	66.7502	-0.10	0.00	0.00	-22.75	7.333	-0.07962	7.14134	0.0
34.0339	66.7502	-0.10	0.00	0.00	-22.75	7.333	-0.08212	7.14131	4.0
34.0539	66.7502	-0.10	0.00	0.00	-22.75	7.333	-0.08461	7.14128	2.0
34.0739	66.7502	-0.10	0.00	0.00	-22.75	7.333	-0.08710	7.14125	4.0
34.0939	66.7502	-0.10	0.00	0.00	-22.75	7.333	-0.08959	7.14122	2.0
34.1139	66.7502	-0.10	0.00	0.00	-22.75	7.333	-0.09209	7.14119	0.0
34.1339	66.7502	-0.10	0.00	0.00	-22.75	7.333	-0.09458	7.14116	2.0
34.1539	66.7502	-0.10	0.00	0.00	-22.75	7.333	-0.09707	7.14112	0.0
34.1739	66.7502	-0.10	0.00	0.00	-22.75	7.333	-0.09957	7.14109	0.0
34.1939	66.7502	-0.10	0.00	0.00	-22.75	7.333	-0.10206	7.14105	0.0
34.2139	66.7502	-0.10	0.00	0.00	-22.75	7.333	-0.10455	7.14102	2.0
34.2339	66.7502	-0.10	0.00	0.00	-22.75	7.333	-0.10704	7.14098	6.0
34.2539	66.7502	-0.10	0.00	0.00	-22.75	7.333	-0.10954	7.14094	2.0
34.2739	66.7502	-0.10	0.00	0.00	-22.75	7.333	-0.11203	7.14090	0.0
34.2939	66.7502	-0.10	0.00	0.00	-22.75	7.333	-0.11452	7.14086	2.0
34.3139	66.7502	-0.10	0.00	0.00	-22.75	7.333	-0.11701	7.14082	2.0
34.3339	66.7502	-0.10	0.00	0.00	-22.75	7.333	-0.11951	7.14078	0.0
34.3539	66.7502	-0.10	0.00	0.00	-22.75	7.333	-0.12200	7.14074	0.0
34.3739	66.7502	-0.10	0.00	0.00	-22.75	7.333	-0.12449	7.14070	0.0
34.3939	66.7502	-0.10	0.00	0.00	-22.75	7.333	-0.12698	7.14065	0.0
34.4139	66.7502	-0.10	0.00	0.00	-22.75	7.333	-0.12948	7.14061	0.0
34.4339	66.7502	-0.10	0.00	0.00	-22.75	7.333	-0.13197	7.14056	0.0
34.4539	66.7502	-0.10	0.00	0.00	-22.75	7.333	-0.13446	7.14052	2.0
34.4739	66.7502	-0.10	0.00	0.00	-22.75	7.333	-0.13695	7.14047	0.0
34.4939	66.7502	-0.10	0.00	0.00	-22.75	7.333	-0.13945	7.14042	0.0
34.5139	66.7502	-0.10	0.00	0.00	-22.75	7.333	-0.14194	7.14037	2.0
34.5339	66.7502	-0.10	0.00	0.00	-22.75	7.333	-0.14443	7.14032	0.0
34.5539	66.7502	-0.10	0.00	0.00	-22.75	7.333	-0.14692	7.14027	0.0
34.5739	66.7502	-0.10	0.00	0.00	-22.75	7.333	-0.14942	7.14022	0.0
34.5939	66.7502	-0.10	0.00	0.00	-22.75	7.333	-0.15191	7.14017	0.0
34.6139	66.7502	-0.10	0.00	0.00	-22.75	7.333	-0.15440	7.14011	2.0
34.6339	66.7502	-0.10	0.00	0.00	-22.75	7.333	-0.15689	7.14006	0.0
34.6539	66.7502	-0.10	0.00	0.00	-22.75	7.333	-0.15939	7.14000	2.0
34.6739	66.7502	-0.10	0.00	0.00	-22.75	7.333	-0.16188	7.13995	0.0
34.6939	66.7502	-0.10	0.00	0.00	-22.75	7.333	-0.16437	7.13989	0.0
34.7139	66.7502	-0.10	0.00	0.00	-22.75	7.333	-0.16686	7.13983	0.0
34.7339	66.7502	-0.10	0.00	0.00	-22.75	7.333	-0.16936	7.13977	0.0
34.7539	66.7502	-0.10	0.00	0.00	-22.75	7.333	-0.17185	7.13971	0.0
34.7739	66.7502	-0.10	0.00	0.00	-22.75	7.333	-0.17434	7.13965	2.0
34.7939	66.7502	-0.10	0.00	0.00	-22.75	7.333	-0.17683	7.13959	2.0
34.8139	66.7502	-0.10	0.00	0.00	-22.75	7.333	-0.17932	7.13953	2.0
34.8339	66.7502	-0.10	0.00	0.00	-22.75	7.333	-0.18182	7.13947	0.0
34.8539	66.7502	-0.10	0.00	0.00	-22.75	7.333	-0.18431	7.13940	0.0
34.8739	66.7502	-0.10	0.00	0.00	-22.75	7.333	-0.18680	7.13934	2.0
34.8939	66.7502	-0.10	0.00	0.00	-22.75	7.333	-0.18929	7.13927	0.0

32.9039	66.7702	-0.10	0.00	0.00	-22.75	7.333	0.06000	7.14342	6.0
32.9239	66.7702	-0.10	0.00	0.00	-22.75	7.333	0.05750	7.14344	0.0
32.9439	66.7702	-0.10	0.00	0.00	-22.75	7.333	0.05501	7.14346	0.0
32.9639	66.7702	-0.10	0.00	0.00	-22.75	7.333	0.05252	7.14348	0.0
32.9839	66.7702	-0.10	0.00	0.00	-22.75	7.333	0.05002	7.14350	2.0
33.0039	66.7702	-0.10	0.00	0.00	-22.75	7.333	0.04753	7.14352	2.0
33.0239	66.7702	-0.10	0.00	0.00	-22.75	7.333	0.04503	7.14353	0.0
33.0439	66.7702	-0.10	0.00	0.00	-22.75	7.333	0.04254	7.14355	2.0
33.0639	66.7702	-0.10	0.00	0.00	-22.75	7.333	0.04005	7.14356	0.0
33.0839	66.7702	-0.10	0.00	0.00	-22.75	7.333	0.03755	7.14358	0.0
33.1039	66.7702	-0.10	0.00	0.00	-22.75	7.333	0.03506	7.14359	0.0
33.1239	66.7702	-0.10	0.00	0.00	-22.75	7.333	0.03257	7.14360	0.0
33.1439	66.7702	-0.10	0.00	0.00	-22.75	7.333	0.03007	7.14361	0.0
33.1639	66.7702	-0.10	0.00	0.00	-22.75	7.333	0.02758	7.14362	0.0
33.1839	66.7702	-0.10	0.00	0.00	-22.75	7.333	0.02509	7.14363	2.0
33.2039	66.7702	-0.10	0.00	0.00	-22.75	7.333	0.02259	7.14364	0.0
33.2239	66.7702	-0.10	0.00	0.00	-22.75	7.333	0.02010	7.14365	0.0
33.2439	66.7702	-0.10	0.00	0.00	-22.75	7.333	0.01760	7.14365	2.0
33.2639	66.7702	-0.10	0.00	0.00	-22.75	7.333	0.01511	7.14366	0.0
33.2839	66.7702	-0.10	0.00	0.00	-22.75	7.333	0.01262	7.14366	0.0
33.3039	66.7702	-0.10	0.00	0.00	-22.75	7.333	0.01012	7.14367	0.0
33.3239	66.7702	-0.10	0.00	0.00	-22.75	7.333	0.00763	7.14367	0.0
33.3439	66.7702	-0.10	0.00	0.00	-22.75	7.333	0.00514	7.14367	6.0
33.3639	66.7702	-0.10	0.00	0.00	-22.75	7.333	0.00264	7.14367	0.0
33.3839	66.7702	-0.10	0.00	0.00	-22.75	7.333	0.00015	7.14367	0.0
33.4039	66.7702	-0.10	0.00	0.00	-22.75	7.333	-0.00234	7.14367	0.0
33.4239	66.7702	-0.10	0.00	0.00	-22.75	7.333	-0.00484	7.14367	0.0
33.4439	66.7702	-0.10	0.00	0.00	-22.75	7.333	-0.00733	7.14367	0.0
33.4639	66.7702	-0.10	0.00	0.00	-22.75	7.333	-0.00982	7.14367	0.0
33.4839	66.7702	-0.10	0.00	0.00	-22.75	7.333	-0.01232	7.14366	4.0
33.5039	66.7702	-0.10	0.00	0.00	-22.75	7.333	-0.01481	7.14366	0.0
33.5239	66.7702	-0.10	0.00	0.00	-22.75	7.333	-0.01731	7.14365	0.0
33.5439	66.7702	-0.10	0.00	0.00	-22.75	7.333	-0.01980	7.14365	0.0
33.5639	66.7702	-0.10	0.00	0.00	-22.75	7.333	-0.02229	7.14364	0.0
33.5839	66.7702	-0.10	0.00	0.00	-22.75	7.333	-0.02479	7.14363	2.0
33.6039	66.7702	-0.10	0.00	0.00	-22.75	7.333	-0.02728	7.14362	2.0
33.6239	66.7702	-0.10	0.00	0.00	-22.75	7.333	-0.02977	7.14361	4.0
33.6439	66.7702	-0.10	0.00	0.00	-22.75	7.333	-0.03227	7.14360	6.0
33.6639	66.7702	-0.10	0.00	0.00	-22.75	7.333	-0.03476	7.14359	0.0
33.6839	66.7702	-0.10	0.00	0.00	-22.75	7.333	-0.03725	7.14358	0.0
33.7039	66.7702	-0.10	0.00	0.00	-22.75	7.333	-0.03975	7.14356	0.0
33.7239	66.7702	-0.10	0.00	0.00	-22.75	7.333	-0.04224	7.14355	0.0
33.7439	66.7702	-0.10	0.00	0.00	-22.75	7.333	-0.04474	7.14353	2.0
33.7639	66.7702	-0.10	0.00	0.00	-22.75	7.333	-0.04723	7.14352	0.0
33.7839	66.7702	-0.10	0.00	0.00	-22.75	7.333	-0.04972	7.14350	0.0
33.8039	66.7702	-0.10	0.00	0.00	-22.75	7.333	-0.05222	7.14348	0.0
33.8239	66.7702	-0.10	0.00	0.00	-22.75	7.333	-0.05471	7.14346	4.0
33.8439	66.7702	-0.10	0.00	0.00	-22.75	7.333	-0.05720	7.14344	0.0
33.8639	66.7702	-0.10	0.00	0.00	-22.75	7.333	-0.05970	7.14342	0.0
33.8839	66.7702	-0.10	0.00	0.00	-22.75	7.333	-0.06219	7.14340	0.0
33.9039	66.7702	-0.10	0.00	0.00	-22.75	7.333	-0.06468	7.14338	0.0
33.9239	66.7702	-0.10	0.00	0.00	-22.75	7.333	-0.06718	7.14336	0.0
33.9439	66.7702	-0.10	0.00	0.00	-22.75	7.333	-0.06967	7.14333	4.0
33.9639	66.7702	-0.10	0.00	0.00	-22.75	7.333	-0.07216	7.14331	0.0
33.9839	66.7702	-0.10	0.00	0.00	-22.75	7.333	-0.07466	7.14328	0.0
34.0039	66.7702	-0.10	0.00	0.00	-22.75	7.333	-0.07715	7.14326	0.0
34.0239	66.7702	-0.10	0.00	0.00	-22.75	7.333	-0.07964	7.14323	2.0
34.0439	66.7702	-0.10	0.00	0.00	-22.75	7.333	-0.08214	7.14320	4.0
34.0639	66.7702	-0.10	0.00	0.00	-22.75	7.333	-0.08463	7.14317	4.0
34.0839	66.7702	-0.10	0.00	0.00	-22.75	7.333	-0.08712	7.14314	4.0
34.1039	66.7702	-0.10	0.00	0.00	-22.75	7.333	-0.08962	7.14311	0.0
34.1239	66.7702	-0.10	0.00	0.00	-22.75	7.333	-0.09211	7.14308	0.0
34.1439	66.7702	-0.10	0.00	0.00	-22.75	7.333	-0.09460	7.14305	0.0
34.1639	66.7702	-0.10	0.00	0.00	-22.75	7.333	-0.09710	7.14301	0.0
34.1839	66.7702	-0.10	0.00	0.00	-22.75	7.333	-0.09959	7.14298	0.0
34.2039	66.7702	-0.10	0.00	0.00	-22.75	7.333	-0.10209	7.14294	0.0
34.2239	66.7702	-0.10	0.00	0.00	-22.75	7.333	-0.10458	7.14291	4.0
34.2439	66.7702	-0.10	0.00	0.00	-22.75	7.333	-0.10707	7.14287	0.0
34.2639	66.7702	-0.10	0.00	0.00	-22.75	7.333	-0.10957	7.14283	2.0
34.2839	66.7702	-0.10	0.00	0.00	-22.75	7.333	-0.11206	7.14279	0.0
34.3039	66.7702	-0.10	0.00	0.00	-22.75	7.333	-0.11455	7.14276	0.0
34.3239	66.7702	-0.10	0.00	0.00	-22.75	7.333	-0.11704	7.14271	4.0
34.3439	66.7702	-0.10	0.00	0.00	-22.75	7.333	-0.11954	7.14267	2.0
34.3639	66.7702	-0.10	0.00	0.00	-22.75	7.333	-0.12203	7.14263	6.0
34.3839	66.7702	-0.10	0.00	0.00	-22.75	7.333	-0.12452	7.14259	2.0
34.4039	66.7702	-0.10	0.00	0.00	-22.75	7.333	-0.12702	7.14254	2.0
34.4239	66.7702	-0.10	0.00	0.00	-22.75	7.333	-0.12951	7.14250	4.0
34.4439	66.7702	-0.10	0.00	0.00	-22.75	7.333	-0.13200	7.14245	0.0
34.4639	66.7702	-0.10	0.00	0.00	-22.75	7.333	-0.13450	7.14241	4.0
34.4839	66.7702	-0.10	0.00	0.00	-22.75	7.333	-0.13699	7.14236	0.0
34.5039	66.7702	-0.10	0.00	0.00	-22.75	7.333	-0.13948	7.14231	0.0
34.5239	66.7702	-0.10	0.00	0.00	-22.75	7.333	-0.14198	7.14226	0.0
34.5439	66.7702	-0.10	0.00	0.00	-22.75	7.333	-0.14447	7.14221	0.0
34.5639	66.7702	-0.10	0.00	0.00	-22.75	7.333	-0.14696	7.14216	0.0
34.5839	66.7702	-0.10	0.00	0.00	-22.75	7.333	-0.14946	7.14211	0.0
34.6039	66.7702	-0.10	0.00	0.00	-22.75	7.333	-0.15195	7.14206	0.0
34.6239	66.7702	-0.10	0.00	0.00	-22.75	7.333	-0.15444	7.14200	2.0
34.6439	66.7702	-0.10	0.00	0.00	-22.75	7.333	-0.15694	7.14195	2.0
34.6639	66.7702	-0.10	0.00	0.00	-22.75	7.333	-0.15943	7.14189	0.0
34.6839	66.7702	-0.10	0.00	0.00	-22.75	7.333	-0.16192	7.14184	0.0
34.7039	66.7702	-0.10	0.00	0.00	-22.75	7.333	-0.16441	7.14178	0.0
34.7239	66.7702	-0.10	0.00	0.00	-22.75	7.333	-0.16691	7.14172	0.0
34.7439	66.7702	-0.10	0.00	0.00	-22.75	7.333	-0.16940	7.14166	0.0
34.7639	66.7702	-0.10	0.00	0.00	-22.75	7.333	-0.17189	7.14161	2.0
34.7839	66.7702	-0.10	0.00	0.00	-22.75	7.333	-0.17439	7.14154	0.0
34.8039	66.7702	-0.10	0.00	0.00	-22.75	7.333	-0.17688	7.14148	0.0
34.8239	66.7702	-0.10	0.00	0.00	-22.75	7.333	-0.17937	7.14142	2.0
34.8439	66.7702	-0.10	0.00	0.00	-22.75	7.333	-0.18186	7.14136	0.0
[...]
36.3039	69.5702	-0.10	0.00	0.00	-22.75	7.333	-0.19631	7.40379	2.0

34.3139	69.5902	-0.10	0.00	0.00	-22.75	7.333	0.06222	7.40799	0.0
34.3339	69.5902	-0.10	0.00	0.00	-22.75	7.333	0.05963	7.40801	0.0
34.3539	69.5902	-0.10	0.00	0.00	-22.75	7.333	0.05705	7.40803	0.0
34.3739	69.5902	-0.10	0.00	0.00	-22.75	7.333	0.05446	7.40805	0.0
34.3939	69.5902	-0.10	0.00	0.00	-22.75	7.333	0.05187	7.40807	0.0
34.4139	69.5902	-0.10	0.00	0.00	-22.75	7.333	0.04929	7.40808	0.0
34.4339	69.5902	-0.10	0.00	0.00	-22.75	7.333	0.04670	7.40810	2.0
34.4539	69.5902	-0.10	0.00	0.00	-22.75	7.333	0.04412	7.40812	0.0
34.4739	69.5902	-0.10	0.00	0.00	-22.75	7.333	0.04153	7.40813	2.0
34.4939	69.5902	-0.10	0.00	0.00	-22.75	7.333	0.03894	7.40815	0.0
34.5139	69.5902	-0.10	0.00	0.00	-22.75	7.333	0.03636	7.40816	4.0
34.5339	69.5902	-0.10	0.00	0.00	-22.75	7.333	0.03377	7.40817	2.0
34.5539	69.5902	-0.10	0.00	0.00	-22.75	7.333	0.03119	7.40818	0.0
34.5739	69.5902	-0.10	0.00	0.00	-22.75	7.333	0.02860	7.40819	2.0
34.5939	69.5902	-0.10	0.00	0.00	-22.75	7.333	0.02601	7.40820	0.0
34.6139	69.5902	-0.10	0.00	0.00	-22.75	7.333	0.02343	7.40821	0.0
34.6339	69.5902	-0.10	0.00	0.00	-22.75	7.333	0.02084	7.40822	2.0
34.6539	69.5902	-0.10	0.00	0.00	-22.75	7.333	0.01826	7.40823	2.0
34.6739	69.5902	-0.10	0.00	0.00	-22.75	7.333	0.01567	7.40823	2.0
34.6939	69.5902	-0.10	0.00	0.00	-22.75	7.333	0.01308	7.40824	4.0
34.7139	69.5902	-0.10	0.00	0.00	-22.75	7.333	0.01050	7.40824	0.0
34.7339	69.5902	-0.10	0.00	0.00	-22.75	7.333	0.00791	7.40824	2.0
34.7539	69.5902	-0.10	0.00	0.00	-22.75	7.333	0.00533	7.40825	2.0
34.7739	69.5902	-0.10	0.00	0.00	-22.75	7.333	0.00274	7.40825	0.0
34.7939	69.5902	-0.10	0.00	0.00	-22.75	7.333	0.00016	7.40825	4.0
34.8139	69.5902	-0.10	0.00	0.00	-22.75	7.333	-0.00243	7.40825	6.0
34.8339	69.5902	-0.10	0.00	0.00	-22.75	7.333	-0.00502	7.40825	4.0
34.8539	69.5902	-0.10	0.00	0.00	-22.75	7.333	-0.00760	7.40825	2.0
34.8739	69.5902	-0.10	0.00	0.00	-22.75	7.333	-0.01019	7.40824	2.0
34.8939	69.5902	-0.10	0.00	0.00	-22.75	7.333	-0.01277	7.40824	2.0
34.9139	69.5902	-0.10	0.00	0.00	-22.75	7.333	-0.01536	7.40823	16.0
34.9339	69.5902	-0.10	0.00	0.00	-22.75	7.333	-0.01795	7.40823	4.0
34.9539	69.5902	-0.10	0.00	0.00	-22.75	7.333	-0.02053	7.40822	6.0
34.9739	69.5902	-0.10	0.00	0.00	-22.75	7.333	-0.02312	7.40821	6.0
34.9939	69.5902	-0.10	0.00	0.00	-22.75	7.333	-0.02570	7.40820	0.0
35.0139	69.5902	-0.10	0.00	0.00	-22.75	7.333	-0.02829	7.40819	8.0
35.0339	69.5902	-0.10	0.00	0.00	-22.75	7.333	-0.03088	7.40818	4.0
35.0539	69.5902	-0.10	0.00	0.00	-22.75	7.333	-0.03346	7.40817	2.0
35.0739	69.5902	-0.10	0.00	0.00	-22.75	7.333	-0.03605	7.40816	2.0
35.0939	69.5902	-0.10	0.00	0.00	-22.75	7.333	-0.03863	7.40815	20.0
35.1139	69.5902	-0.10	0.00	0.00	-22.75	7.333	-0.04122	7.40813	2.0
35.1339	69.5902	-0.10	0.00	0.00	-22.75	7.333	-0.04381	7.40812	4.0
35.1539	69.5902	-0.10	0.00	0.00	-22.75	7.333	-0.04639	7.40810	2.0
35.1739	69.5902	-0.10	0.00	0.00	-22.75	7.333	-0.04898	7.40809	2.0
35.1939	69.5902	-0.10	0.00	0.00	-22.75	7.333	-0.05156	7.40807	2.0
35.2139	69.5902	-0.10	0.00	0.00	-22.75	7.333	-0.05415	7.40805	4.0
35.2339	69.5902	-0.10	0.00	0.00	-22.75	7.333	-0.05674	7.40803	2.0
35.2539	69.5902	-0.10	0.00	0.00	-22.75	7.333	-0.05932	7.40801	0.0
35.2739	69.5902	-0.10	0.00	0.00	-22.75	7.333	-0.06191	7.40799	2.0
35.2939	69.5902	-0.10	0.00	0.00	-22.75	7.333	-0.06449	7.40797	2.0
35.3139	69.5902	-0.10	0.00	0.00	-22.75	7.333	-0.06708	7.40795	0.0
35.3339	69.5902	-0.10	0.00	0.00	-22.75	7.333	-0.06966	7.40792	2.0
35.3539	69.5902	-0.10	0.00	0.00	-22.75	7.333	-0.07225	7.40790	0.0
35.3739	69.5902	-0.10	0.00	0.00	-22.75	7.333	-0.07484	7.40787	0.0
35.3939	69.5902	-0.10	0.00	0.00	-22.75	7.333	-0.07742	7.40784	0.0
35.4139	69.5902	-0.10	0.00	0.00	-22.75	7.333	-0.08001	7.40782	2.0
35.4339	69.5902	-0.10	0.00	0.00	-22.75	7.333	-0.08259	7.40779	2.0
35.4539	69.5902	-0.10	0.00	0.00	-22.75	7.333	-0.08518	7.40776	4.0
35.4739	69.5902	-0.10	0.00	0.00	-22.75	7.333	-0.08777	7.40773	2.0
35.4939	69.5902	-0.10	0.00	0.00	-22.75	7.333	-0.09035	7.40770	0.0
35.5139	69.5902	-0.10	0.00	0.00	-22.75	7.333	-0.09294	7.40767	2.0
35.5339	69.5902	-0.10	0.00	0.00	-22.75	7.333	-0.09552	7.40763	6.0
35.5539	69.5902	-0.10	0.00	0.00	-22.75	7.333	-0.09811	7.40760	4.0
35.5739	69.5902	-0.10	0.00	0.00	-22.75	7.333	-0.10069	7.40756	4.0
35.5939	69.5902	-0.10	0.00	0.00	-22.75	7.333	-0.10328	7.40753	4.0
35.6139	69.5902	-0.10	0.00	0.00	-22.75	7.333	-0.10587	7.40749	0.0
35.6339	69.5902	-0.10	0.00	0.00	-22.75	7.333	-0.10845	7.40746	6.0
35.6539	69.5902	-0.10	0.00	0.00	-22.75	7.333	-0.11104	7.40742	2.0
35.6739	69.5902	-0.10	0.00	0.00	-22.75	7.333	-0.11362	7.40738	2.0
35.6939	69.5902	-0.10	0.00	0.00	-22.75	7.333	-0.11621	7.40734	0.0
35.7139	69.5902	-0.10	0.00	0.00	-22.75	7.333	-0.11879	7.40730	2.0
35.7339	69.5902	-0.10	0.00	0.00	-22.75	7.333	-0.12138	7.40725	0.0
35.7539	69.5902	-0.10	0.00	0.00	-22.75	7.333	-0.12397	7.40721	2.0
35.7739	69.5902	-0.10	0.00	0.00	-22.75	7.333	-0.12655	7.40717	0.0
35.7939	69.5902	-0.10	0.00	0.00	-22.75	7.333	-0.12914	7.40712	2.0
35.8139	69.5902	-0.10	0.00	0.00	-22.75	7.333	-0.13172	7.40708	2.0
35.8339	69.5902	-0.10	0.00	0.00	-22.75	7.333	-0.13431	7.40703	2.0
35.8539	69.5902	-0.10	0.00	0.00	-22.75	7.333	-0.13689	7.40698	0.0
35.8739	69.5902	-0.10	0.00	0.00	-22.75	7.333	-0.13948	7.40694	0.0
35.8939	69.5902	-0.10	0.00	0.00	-22.75	7.333	-0.14206	7.40689	2.0
35.9139	69.5902	-0.10	0.00	0.00	-22.75	7.333	-0.14465	7.40684	6.0
35.9339	69.5902	-0.10	0.00	0.00	-22.75	7.333	-0.14724	7.40679	0.0
35.9539	69.5902	-0.10	0.00	0.00	-22.75	7.333	-0.14982	7.40673	2.0
35.9739	69.5902	-0.10	0.00	0.00	-22.75	7.333	-0.15241	7.40668	2.0
35.9939	69.5902	-0.10	0.00	0.00	-22.75	7.333	-0.15499	7.40663	2.0
36.0139	69.5902	-0.10	0.00	0.00	-22.75	7.333	-0.15758	7.40657	4.0
36.0339	69.5902	-0.10	0.00	0.00	-22.75	7.333	-0.16016	7.40652	0.0
36.0539	69.5902	-0.10	0.00	0.00	-22.75	7.333	-0.16275	7.40646	2.0
36.0739	69.5902	-0.10	0.00	0.00	-22.75	7.333	-0.16533	7.40640	0.0
36.0939	69.5902	-0.10	0.00	0.00	-22.75	7.333	-0.16792	7.40635	4.0
36.1139	69.5902	-0.10	0.00	0.00	-22.75	7.333	-0.17050	7.40629	2.0
36.1339	69.5902	-0.10	0.00	0.00	-22.75	7.333	-0.17309	7.40623	4.0
36.1539	69.5902	-0.10	0.00	0.00	-22.75	7.333	-0.17567	7.40617	0.0
36.1739	69.5902	-0.10	0.00	0.00	-22.75	7.333	-0.17826	7.40610	0.0
36.1939	69.5902	-0.10	0.00	0.00	-22.75	7.333	-0.18084	7.40604	0.0
36.2139	69.5902	-0.10	0.00	0.00	-22.75	7.333	-0.18343	7.40598	0.0
36.2339	69.5902	-0.10	0.00	0.00	-22.75	7.333	-0.18601	7.40591	2.0
36.2539	69.5902	-0.10	0.00	0.00	-22.75	7.333	-0.18860	7.40585	2.0
36.2739	69.5902	-0.10	0.00	0.00	-22.75	7.333	-0.19119	7.40578	2.0
36.2939	69.5902	-0.10	0.00	0.00	-22.75	7.333	-0.19377	7.40571	0.0
36.3139	69.5902	-0.10	0.00	0.00	-22.75	7.333	-0.19636	7.40565	0.0

34.3239	69.6102	-0.10	0.00	0.00	-22.75	7.333	0.06223	7.40985	2.0
34.3439	69.6102	-0.10	0.00	0.00	-22.75	7.333	0.05965	7.40987	0.0
34.3639	69.6102	-0.10	0.00	0.00	-22.75	7.333	0.05706	7.40989	6.0
34.3839	69.6102	-0.10	0.00	0.00	-22.75	7.333	0.05447	7.40991	2.0
34.4039	69.6102	-0.10	0.00	0.00	-22.75	7.333	0.05189	7.40993	0.0
34.4239	69.6102	-0.10	0.00	0.00	-22.75	7.333	0.04930	7.40995	4.0
34.4439	69.6102	-0.10	0.00	0.00	-22.75	7.333	0.04671	7.40996	0.0
34.4639	69.6102	-0.10	0.00	0.00	-22.75	7.333	0.04413	7.40998	0.0
34.4839	69.6102	-0.10	0.00	0.00	-22.75	7.333	0.04154	7.40999	0.0
34.5039	69.6102	-0.10	0.00	0.00	-22.75	7.333	0.03895	7.41001	4.0
34.5239	69.6102	-0.10	0.00	0.00	-22.75	7.333	0.03637	7.41002	2.0
34.5439	69.6102	-0.10	0.00	0.00	-22.75	7.333	0.03378	7.41003	2.0
34.5639	69.6102	-0.10	0.00	0.00	-22.75	7.333	0.03119	7.41004	0.0
34.5839	69.6102	-0.10	0.00	0.00	-22.75	7.333	0.02861	7.41005	4.0
34.6039	69.6102	-0.10	0.00	0.00	-22.75	7.333	0.02602	7.41006	2.0
34.6239	69.6102	-0.10	0.00	0.00	-22.75	7.333	0.02343	7.41007	0.0
34.6439	69.6102	-0.10	0.00	0.00	-22.75	7.333	0.02085	7.41008	4.0
34.6639	69.6102	-0.10	0.00	0.00	-22.75	7.333	0.01826	7.41009	4.0
34.6839	69.6102	-0.10	0.00	0.00	-22.75	7.333	0.01567	7.41009	4.0
34.7039	69.6102	-0.10	0.00	0.00	-22.75	7.333	0.01309	7.41010	4.0
34.7239	69.6102	-0.10	0.00	0.00	-22.75	7.333	0.01050	7.41010	4.0
34.7439	69.6102	-0.10	0.00	0.00	-22.75	7.333	0.00792	7.41011	2.0
34.7639	69.6102	-0.10	0.00	0.00	-22.75	7.333	0.00533	7.41011	0.0
34.7839	69.6102	-0.10	0.00	0.00	-22.75	7.333	0.00274	7.41011	2.0
34.8039	69.6102	-0.10	0.00	0.00	-22.75	7.333	0.00016	7.41011	2.0
34.8239	69.6102	-0.10	0.00	0.00	-22.75	7.333	-0.00243	7.41011	2.0
34.8439	69.6102	-0.10	0.00	0.00	-22.75	7.333	-0.00502	7.41011	0.0
34.8639	69.6102	-0.10	0.00	0.00	-22.75	7.333	-0.00760	7.41011	0.0
34.8839	69.6102	-0.10	0.00	0.00	-22.75	7.333	-0.01019	7.41010	6.0
34.9039	69.6102	-0.10	0.00	0.00	-22.75	7.333	-0.01278	7.41010	0.0
34.9239	69.6102	-0.10	0.00	0.00	-22.75	7.333	-0.01536	7.41009	2.0
34.9439	69.6102	-0.10	0.00	0.00	-22.75	7.333	-0.01795	7.41009	0.0
34.9639	69.6102	-0.10	0.00	0.00	-22.75	7.333	-0.02054	7.41008	2.0
34.9839	69.6102	-0.10	0.00	0.00	-22.75	7.333	-0.02312	7.41007	0.0
35.0039	69.6102	-0.10	0.00	0.00	-22.75	7.333	-0.02571	7.41006	4.0
35.0239	69.6102	-0.10	0.00	0.00	-22.75	7.333	-0.02830	7.41006	0.0
35.0439	69.6102	-0.10	0.00	0.00	-22.75	7.333	-0.03088	7.41005	2.0
35.0639	69.6102	-0.10	0.00	0.00	-22.75	7.333	-0.03347	7.41003	4.0
35.0839	69.6102	-0.10	0.00	0.00	-22.75	7.333	-0.03606	7.41002	20.0
35.1039	69.6102	-0.10	0.00	0.00	-22.75	7.333	-0.03864	7.41001	6.0
35.1239	69.6102	-0.10	0.00	0.00	-22.75	7.333	-0.04123	7.40999	0.0
35.1439	69.6102	-0.10	0.00	0.00	-22.75	7.333	-0.04382	7.40998	0.0
35.1639	69.6102	-0.10	0.00	0.00	-22.75	7.333	-0.04640	7.40996	2.0
35.1839	69.6102	-0.10	0.00	0.00	-22.75	7.333	-0.04899	7.40995	2.0
35.2039	69.6102	-0.10	0.00	0.00	-22.75	7.333	-0.05158	7.40993	4.0
35.2239	69.6102	-0.10	0.00	0.00	-22.75	7.333	-0.05416	7.40991	4.0
35.2439	69.6102	-0.10	0.00	0.00	-22.75	7.333	-0.05675	7.40989	0.0
35.2639	69.6102	-0.10	0.00	0.00	-22.75	7.333	-0.05934	7.40987	0.0
35.2839	69.6102	-0.10	0.00	0.00	-22.75	7.333	-0.06192	7.40985	2.0
35.3039	69.6102	-0.10	0.00	0.00	-22.75	7.333	-0.06451	7.40983	4.0
35.3239	69.6102	-0.10	0.00	0.00	-22.75	7.333	-0.06710	7.40981	2.0
35.3439	69.6102	-0.10	0.00	0.00	-22.75	7.333	-0.06968	7.40978	2.0
35.3639	69.6102	-0.10	0.00	0.00	-22.75	7.333	-0.07227	7.40976	4.0
35.3839	69.6102	-0.10	0.00	0.00	-22.75	7.333	-0.07486	7.40973	2.0
35.4039	69.6102	-0.10	0.00	0.00	-22.75	7.333	-0.07744	7.40970	4.0
35.4239	69.6102	-0.10	0.00	0.00	-22.75	7.333	-0.08003	7.40968	0.0
35.4439	69.6102	-0.10	0.00	0.00	-22.75	7.333	-0.08261	7.40965	8.0
35.4639	69.6102	-0.10	0.00	0.00	-22.75	7.333	-0.08520	7.40962	4.0
35.4839	69.6102	-0.10	0.00	0.00	-22.75	7.333	-0.08779	7.40959	2.0
35.5039	69.6102	-0.10	0.00	0.00	-22.75	7.333	-0.09037	7.40956	0.0
35.5239	69.6102	-0.10	0.00	0.00	-22.75	7.333	-0.09296	7.40953	6.0
35.5439	69.6102	-0.10	0.00	0.00	-22.75	7.333	-0.09555	7.40949	2.0
35.5639	69.6102	-0.10	0.00	0.00	-22.75	7.333	-0.09813	7.40946	2.0
35.5839	69.6102	-0.10	0.00	0.00	-22.75	7.333	-0.10072	7.40942	4.0
35.6039	69.6102	-0.10	0.00	0.00	-22.75	7.333	-0.10331	7.40939	0.0
35.6239	69.6102	-0.10	0.00	0.00	-22.75	7.333	-0.10589	7.40935	0.0
35.6439	69.6102	-0.10	0.00	0.00	-22.75	7.333	-0.10848	7.40932	2.0
35.6639	69.6102	-0.10	0.00	0.00	-22.75	7.333	-0.11107	7.40928	0.0
35.6839	69.6102	-0.10	0.00	0.00	-22.75	7.333	-0.11365	7.40924	4.0
35.7039	69.6102	-0.10	0.00	0.00	-22.75	7.333	-0.11624	7.40920	6.0
35.7239	69.6102	-0.10	0.00	0.00	-22.75	7.333	-0.11882	7.40916	2.0
35.7439	69.6102	-0.10	0.00	0.00	-22.75	7.333	-0.12141	7.40911	4.0
35.7639	69.6102	-0.10	0.00	0.00	-22.75	7.333	-0.12400	7.40907	2.0
35.7839	69.6102	-0.10	0.00	0.00	-22.75	7.333	-0.12658	7.40903	0.0
35.8039	69.6102	-0.10	0.00	0.00	-22.75	7.333	-0.12917	7.40898	0.0
35.8239	69.6102	-0.10	0.00	0.00	-22.75	7.333	-0.13176	7.40894	4.0
35.8439	69.6102	-0.10	0.00	0.00	-22.75	7.333	-0.13434	7.40889	2.0
35.8639	69.6102	-0.10	0.00	0.00	-22.75	7.333	-0.13693	7.40884	0.0
35.8839	69.6102	-0.10	0.00	0.00	-22.75	7.333	-0.13951	7.40880	2.0
35.9039	69.6102	-0.10	0.00	0.00	-22.75	7.333	-0.14210	7.40875	0.0
35.9239	69.6102	-0.10	0.00	0.00	-22.75	7.333	-0.14469	7.40870	2.0
35.9439	69.6102	-0.10	0.00	0.00	-22.75	7.333	-0.14727	7.40865	0.0
35.9639	69.6102	-0.10	0.00	0.00	-22.75	7.333	-0.14986	7.40859	4.0
35.9839	69.6102	-0.10	0.00	0.00	-22.75	7.333	-0.15244	7.40854	2.0
36.0039	69.6102	-0.10	0.00	0.00	-22.75	7.333	-0.15503	7.40849	2.0
36.0239	69.6102	-0.10	0.00	0.00	-22.75	7.333	-0.15762	7.40843	0.0
36.0439	69.6102	-0.10	0.00	0.00	-22.75	7.333	-0.16020	7.40838	2.0
36.0639	69.6102	-0.10	0.00	0.00	-22.75	7.333	-0.16279	7.40832	0.0
36.0839	69.6102	-0.10	0.00	0.00	-22.75	7.333	-0.16537	7.40826	0.0
36.1039	69.6102	-0.10	0.00	0.00	-22.75	7.333	-0.16796	7.40821	0.0
36.1239	69.6102	-0.10	0.00	0.00	-22.75	7.333	-0.17055	7.40815	0.0
36.1439	69.6102	-0.10	0.00	0.00	-22.75	7.333	-0.17313	7.40809	0.0
36.1639	69.6102	-0.10	0.00	0.00	-22.75	7.333	-0.17572	7.40803	2.0
36.1839	69.6102	-0.10	0.00	0.00	-22.75	7.333	-0.17830	7.40796	0.0
36.2039	69.6102	-0.10	0.00	0.00	-22.75	7.333	-0.18089	7.40790	0.0
36.2239	69.6102	-0.10	0.00	0.00	-22.75	7.333	-0.18348	7.40784	2.0
36.2439	69.6102	-0.10	0.00	0.00	-22.75	7.333	-0.18606	7.40777	2.0
36.2639	69.6102	-0.10	0.00	0.00	-22.75	7.333	-0.18865	7.40771	0.0
36.2839	69.6102	-0.10	0.00	0.00	-22.75	7.333	-0.19123	7.40764	2.0
36.3039	69.6102	-0.10	0.00	0.00	-22.75	7.333	-0.19382	7.40757	0.0
36.3239	69.6102	-0.10	0.00	0.00	-22.75	7.333	-0.19640	7.40751	2.0

34.3339	69.6302	-0.10	0.00	0.00	-22.75	7.333	0.06225	7.41171	2.0
34.3539	69.6302	-0.10	0.00	0.00	-22.75	7.333	0.05966	7.41173	0.0
34.3739	69.6302	-0.10	0.00	0.00	-22.75	7.333	0.05707	7.41175	2.0
34.3939	69.6302	-0.10	0.00	0.00	-22.75	7.333	0.05449	7.41177	2.0
34.4139	69.6302	-0.10	0.00	0.00	-22.75	7.333	0.05190	7.41179	0.0
34.4339	69.6302	-0.10	0.00	0.00	-22.75	7.333	0.04931	7.41181	2.0
34.4539	69.6302	-0.10	0.00	0.00	-22.75	7.333	0.04673	7.41182	0.0
34.4739	69.6302	-0.10	0.00	0.00	-22.75	7.333	0.04414	7.41184	2.0
34.4939	69.6302	-0.10	0.00	0.00	-22.75	7.333	0.04155	7.41185	2.0
34.5139	69.6302	-0.10	0.00	0.00	-22.75	7.333	0.03896	7.41187	2.0
34.5339	69.6302	-0.10	0.00	0.00	-22.75	7.333	0.03638	7.41188	4.0
34.5539	69.6302	-0.10	0.00	0.00	-22.75	7.333	0.03379	7.41189	0.0
34.5739	69.6302	-0.10	0.00	0.00	-22.75	7.333	0.03120	7.41190	2.0
34.5939	69.6302	-0.10	0.00	0.00	-22.75	7.333	0.02862	7.41191	0.0
34.6139	69.6302	-0.10	0.00	0.00	-22.75	7.333	0.02603	7.41192	0.0
34.6339	69.6302	-0.10	0.00	0.00	-22.75	7.333	0.02344	7.41193	0.0
34.6539	69.6302	-0.10	0.00	0.00	-22.75	7.333	0.02085	7.41194	0.0
34.6739	69.6302	-0.10	0.00	0.00	-22.75	7.333	0.01827	7.41195	2.0
34.6939	69.6302	-0.10	0.00	0.00	-22.75	7.333	0.01568	7.41195	0.0
34.7139	69.6302	-0.10	0.00	0.00	-22.75	7.333	0.01309	7.41196	2.0
34.7339	69.6302	-0.10	0.00	0.00	-22.75	7.333	0.01050	7.41196	0.0
34.7539	69.6302	-0.10	0.00	0.00	-22.75	7.333	0.00792	7.41197	0.0
34.7739	69.6302	-0.10	0.00	0.00	-22.75	7.333	0.00533	7.41197	0.0
34.7939	69.6302	-0.10	0.00	0.00	-22.75	7.333	0.00274	7.41197	2.0
34.8139	69.6302	-0.10	0.00	0.00	-22.75	7.333	0.00016	7.41197	0.0
34.8339	69.6302	-0.10	0.00	0.00	-22.75	7.333	-0.00243	7.41197	0.0
34.8539	69.6302	-0.10	0.00	0.00	-22.75	7.333	-0.00502	7.41197	0.0
34.8739	69.6302	-0.10	0.00	0.00	-22.75	7.333	-0.00761	7.41197	2.0
34.8939	69.6302	-0.10	0.00	0.00	-22.75	7.333	-0.01019	7.41196	2.0
34.9139	69.6302	-0.10	0.00	0.00	-22.75	7.333	-0.01278	7.41196	0.0
34.9339	69.6302	-0.10	0.00	0.00	-22.75	7.333	-0.01537	7.41195	8.0
34.9539	69.6302	-0.10	0.00	0.00	-22.75	7.333	-0.01796	7.41195	2.0
34.9739	69.6302	-0.10	0.00	0.00	-22.75	7.333	-0.02054	7.41194	6.0
34.9939	69.6302	-0.10	0.00	0.00	-22.75	7.333	-0.02313	7.41193	2.0
35.0139	69.6302	-0.10	0.00	0.00	-22.75	7.333	-0.02572	7.41193	4.0
35.0339	69.6302	-0.10	0.00	0.00	-22.75	7.333	-0.02830	7.41192	2.0
35.0539	69.6302	-0.10	0.00	0.00	-22.75	7.333	-0.03089	7.41191	2.0
35.0739	69.6302	-0.10	0.00	0.00	-22.75	7.333	-0.03348	7.41189	0.0
35.0939	69.6302	-0.10	0.00	0.00	-22.75	7.333	-0.03607	7.41188	22.0
35.1139	69.6302	-0.10	0.00	0.00	-22.75	7.333	-0.03865	7.41187	2.0
35.1339	69.6302	-0.10	0.00	0.00	-22.75	7.333	-0.04124	7.41186	4.0
35.1539	69.6302	-0.10	0.00	0.00	-22.75	7.333	-0.04383	7.41184	0.0
35.1739	69.6302	-0.10	0.00	0.00	-22.75	7.333	-0.04642	7.41182	2.0
35.1939	69.6302	-0.10	0.00	0.00	-22.75	7.333	-0.04900	7.41181	4.0
35.2139	69.6302	-0.10	0.00	0.00	-22.75	7.333	-0.05159	7.41179	2.0
35.2339	69.6302	-0.10	0.00	0.00	-22.75	7.333	-0.05418	7.41177	4.0
35.2539	69.6302	-0.10	0.00	0.00	-22.75	7.333	-0.05676	7.41175	0.0
35.2739	69.6302	-0.10	0.00	0.00	-22.75	7.333	-0.05935	7.41173	2.0
35.2939	69.6302	-0.10	0.00	0.00	-22.75	7.333	-0.06194	7.41171	0.0
35.3139	69.6302	-0.10	0.00	0.00	-22.75	7.333	-0.06453	7.41169	2.0
35.3339	69.6302	-0.10	0.00	0.00	-22.75	7.333	-0.06711	7.41167	2.0
35.3539	69.6302	-0.10	0.00	0.00	-22.75	7.333	-0.06970	7.41164	2.0
35.3739	69.6302	-0.10	0.00	0.00	-22.75	7.333	-0.07229	7.41162	2.0
35.3939	69.6302	-0.10	0.00	0.00	-22.75	7.333	-0.07487	7.41159	2.0
35.4139	69.6302	-0.10	0.00	0.00	-22.75	7.333	-0.07746	7.41157	4.0
35.4339	69.6302	-0.10	0.00	0.00	-22.75	7.333	-0.08005	7.41154	0.0
35.4539	69.6302	-0.10	0.00	0.00	-22.75	7.333	-0.08264	7.41151	0.0
35.4739	69.6302	-0.10	0.00	0.00	-22.75	7.333	-0.08522	7.41148	0.0
35.4939	69.6302	-0.10	0.00	0.00	-22.75	7.333	-0.08781	7.41145	0.0
35.5139	69.6302	-0.10	0.00	0.00	-22.75	7.333	-0.09040	7.41142	0.0
35.5339	69.6302	-0.10	0.00	0.00	-22.75	7.333	-0.09298	7.41139	4.0
35.5539	69.6302	-0.10	0.00	0.00	-22.75	7.333	-0.09557	7.41135	2.0
35.5739	69.6302	-0.10	0.00	0.00	-22.75	7.333	-0.09816	7.41132	4.0
35.5939	69.6302	-0.10	0.00	0.00	-22.75	7.333	-0.10075	7.41129	4.0
35.6139	69.6302	-0.10	0.00	0.00	-22.75	7.333	-0.10333	7.41125	2.0
35.6339	69.6302	-0.10	0.00	0.00	-22.75	7.333	-0.10592	7.41121	2.0
35.6539	69.6302	-0.10	0.00	0.00	-22.75	7.333	-0.10851	7.41118	0.0
35.6739	69.6302	-0.10	0.00	0.00	-22.75	7.333	-0.11109	7.41114	0.0
35.6939	69.6302	-0.10	0.00	0.00	-22.75	7.333	-0.11368	7.41110	0.0
35.7139	69.6302	-0.10	0.00	0.00	-22.75	7.333	-0.11627	7.41106	2.0
35.7339	69.6302	-0.10	0.00	0.00	-22.75	7.333	-0.11885	7.41102	4.0
35.7539	69.6302	-0.10	0.00	0.00	-22.75	7.333	-0.12144	7.41097	0.0
35.7739	69.6302	-0.10	0.00	0.00	-22.75	7.333	-0.12403	7.41093	0.0
35.7939	69.6302	-0.10	0.00	0.00	-22.75	7.333	-0.12661	7.41089	2.0
35.8139	69.6302	-0.10	0.00	0.00	-22.75	7.333	-0.12920	7.41084	4.0
35.8339	69.6302	-0.10	0.00	0.00	-22.75	7.333	-0.13179	7.41080	2.0
35.8539	69.6302	-0.10	0.00	0.00	-22.75	7.333	-0.13438	7.41075	6.0
35.8739	69.6302	-0.10	0.00	0.00	-22.75	7.333	-0.13696	7.41070	0.0
35.8939	69.6302	-0.10	0.00	0.00	-22.75	7.333	-0.13955	7.41066	2.0
35.9139	69.6302	-0.10	0.00	0.00	-22.75	7.333	-0.14214	7.41061	0.0
35.9339	69.6302	-0.10	0.00	0.00	-22.75	7.333	-0.14472	7.41056	0.0
35.9539	69.6302	-0.10	0.00	0.00	-22.75	7.333	-0.14731	7.41051	2.0
35.9739	69.6302	-0.10	0.00	0.00	-22.75	7.333	-0.14990	7.41045	2.0
35.9939	69.6302	-0.10	0.00	0.00	-22.75	7.333	-0.15248	7.41040	4.0
36.0139	69.6302	-0.10	0.00	0.00	-22.75	7.333	-0.15507	7.41035	0.0
36.0339	69.6302	-0.10	0.00	0.00	-22.75	7.333	-0.15766	7.41029	2.0
36.0539	69.6302	-0.10	0.00	0.00	-22.75	7.333	-0.16024	7.41024	0.0
36.0739	69.6302	-0.10	0.00	0.00	-22.75	7.333	-0.16283	7.41018	0.0
36.0939	69.6302	-0.10	0.00	0.00	-22.75	7.333	-0.16542	7.41012	0.0
36.1139	69.6302	-0.10	0.00	0.00	-22.75	7.333	-0.16800	7.41007	2.0
36.1339	69.6302	-0.10	0.00	0.00	-22.75	7.333	-0.17059	7.41001	0.0
36.1539	69.6302	-0.10	0.00	0.00	-22.75	7.333	-0.17318	7.40995	0.0
36.1739	69.6302	-0.10	0.00	0.00	-22.75	7.333	-0.17576	7.40989	0.0
36.1939	69.6302	-0.10	0.00	0.00	-22.75	7.333	-0.17835	7.40982	2.0
36.2139	69.6302	-0.10	0.00	0.00	-22.75	7.333	-0.18094	7.40976	0.0
36.2339	69.6302	-0.10	0.00	0.00	-22.75	7.333	-0.18352	7.40970	0.0
36.2539	69.6302	-0.10	0.00	0.00	-22.75	7.333	-0.18611	7.40963	4.0
36.2739	69.6302	-0.10	0.00	0.00	-22.75	7.333	-0.18869	7.40957	2.0
36.2939	69.6302	-0.10	0.00	0.00	-22.75	7.333	-0.19128	7.40950	0.0
36.3139	69.6302	-0.10	0.00	0.00	-22.75	7.333	-0.19387	7.40943	0.0
36.3339	69.6302	-0.10	0.00	0.00	-22.75	7.333	-0.19645	7.40937	0.0