File: Data/113xx/Omega/1.5deg-2.0deg-rsm-2h30mins_11355-annealed_004_w-scans.dat
# filename: 1.5deg-2.0deg-rsm-2h30mins_11355-annealed_004.dat
# reflection: (004)
# type: rotated into a series of omega scans
# x-axis: Omega_2Theta
#
# Omega	2Theta	Phi  	Chi   	X    	Y    	Z    	q_para	q_perp	Intensity
# [deg]	[deg] 	[deg]	[deg] 	[mm] 	[mm] 	[mm] 	[nm-1]	[nm-1]	[counts/s]
32.6813	66.6668	-0.70	-0.27	0.00	15.50	7.376	0.08119	7.13343	0.0
32.7013	66.6668	-0.70	-0.27	0.00	15.50	7.376	0.07870	7.13346	0.0
32.7213	66.6668	-0.70	-0.27	0.00	15.50	7.376	0.07621	7.13348	0.0
32.7413	66.6668	-0.70	-0.27	0.00	15.50	7.376	0.07372	7.13351	0.0
32.7613	66.6668	-0.70	-0.27	0.00	15.50	7.376	0.07123	7.13353	0.0
32.7813	66.6668	-0.70	-0.27	0.00	15.50	7.376	0.06874	7.13356	0.0
32.8013	66.6668	-0.70	-0.27	0.00	15.50	7.376	0.06625	7.13358	0.0
32.8213	66.6668	-0.70	-0.27	0.00	15.50	7.376	0.06376	7.13360	0.0
32.8413	66.6668	-0.70	-0.27	0.00	15.50	7.376	0.06127	7.13363	0.0
32.8613	66.6668	-0.70	-0.27	0.00	15.50	7.376	0.05878	7.13365	2.0
32.8813	66.6668	-0.70	-0.27	0.00	15.50	7.376	0.05629	7.13367	0.0
32.9013	66.6668	-0.70	-0.27	0.00	15.50	7.376	0.05380	7.13369	0.0
32.9213	66.6668	-0.70	-0.27	0.00	15.50	7.376	0.05131	7.13370	0.0
32.9413	66.6668	-0.70	-0.27	0.00	15.50	7.376	0.04882	7.13372	0.0
32.9613	66.6668	-0.70	-0.27	0.00	15.50	7.376	0.04633	7.13374	4.0
32.9813	66.6668	-0.70	-0.27	0.00	15.50	7.376	0.04384	7.13375	0.0
33.0013	66.6668	-0.70	-0.27	0.00	15.50	7.376	0.04135	7.13377	2.0
33.0213	66.6668	-0.70	-0.27	0.00	15.50	7.376	0.03886	7.13378	0.0
33.0413	66.6668	-0.70	-0.27	0.00	15.50	7.376	0.03637	7.13380	2.0
33.0613	66.6668	-0.70	-0.27	0.00	15.50	7.376	0.03388	7.13381	0.0
33.0813	66.6668	-0.70	-0.27	0.00	15.50	7.376	0.03139	7.13382	4.0
33.1013	66.6668	-0.70	-0.27	0.00	15.50	7.376	0.02890	7.13383	0.0
33.1213	66.6668	-0.70	-0.27	0.00	15.50	7.376	0.02641	7.13384	0.0
33.1413	66.6668	-0.70	-0.27	0.00	15.50	7.376	0.02392	7.13385	2.0
33.1613	66.6668	-0.70	-0.27	0.00	15.50	7.376	0.02143	7.13386	0.0
33.1813	66.6668	-0.70	-0.27	0.00	15.50	7.376	0.01894	7.13386	6.0
33.2013	66.6668	-0.70	-0.27	0.00	15.50	7.376	0.01645	7.13387	0.0
33.2213	66.6668	-0.70	-0.27	0.00	15.50	7.376	0.01396	7.13388	0.0
33.2413	66.6668	-0.70	-0.27	0.00	15.50	7.376	0.01147	7.13388	0.0
33.2613	66.6668	-0.70	-0.27	0.00	15.50	7.376	0.00898	7.13388	0.0
33.2813	66.6668	-0.70	-0.27	0.00	15.50	7.376	0.00649	7.13389	0.0
33.3013	66.6668	-0.70	-0.27	0.00	15.50	7.376	0.00400	7.13389	0.0
33.3213	66.6668	-0.70	-0.27	0.00	15.50	7.376	0.00151	7.13389	0.0
33.3413	66.6668	-0.70	-0.27	0.00	15.50	7.376	-0.00098	7.13389	2.0
33.3613	66.6668	-0.70	-0.27	0.00	15.50	7.376	-0.00347	7.13389	2.0
33.3813	66.6668	-0.70	-0.27	0.00	15.50	7.376	-0.00596	7.13389	0.0
33.4013	66.6668	-0.70	-0.27	0.00	15.50	7.376	-0.00845	7.13388	2.0
33.4213	66.6668	-0.70	-0.27	0.00	15.50	7.376	-0.01094	7.13388	0.0
33.4413	66.6668	-0.70	-0.27	0.00	15.50	7.376	-0.01343	7.13388	0.0
33.4613	66.6668	-0.70	-0.27	0.00	15.50	7.376	-0.01592	7.13387	2.0
33.4813	66.6668	-0.70	-0.27	0.00	15.50	7.376	-0.01841	7.13387	2.0
33.5013	66.6668	-0.70	-0.27	0.00	15.50	7.376	-0.02091	7.13386	0.0
33.5213	66.6668	-0.70	-0.27	0.00	15.50	7.376	-0.02340	7.13385	0.0
33.5413	66.6668	-0.70	-0.27	0.00	15.50	7.376	-0.02589	7.13384	0.0
33.5613	66.6668	-0.70	-0.27	0.00	15.50	7.376	-0.02838	7.13383	0.0
33.5813	66.6668	-0.70	-0.27	0.00	15.50	7.376	-0.03087	7.13382	0.0
33.6013	66.6668	-0.70	-0.27	0.00	15.50	7.376	-0.03336	7.13381	4.0
33.6213	66.6668	-0.70	-0.27	0.00	15.50	7.376	-0.03585	7.13380	4.0
33.6413	66.6668	-0.70	-0.27	0.00	15.50	7.376	-0.03834	7.13379	0.0
33.6613	66.6668	-0.70	-0.27	0.00	15.50	7.376	-0.04083	7.13377	2.0
33.6813	66.6668	-0.70	-0.27	0.00	15.50	7.376	-0.04332	7.13376	4.0
33.7013	66.6668	-0.70	-0.27	0.00	15.50	7.376	-0.04581	7.13374	0.0
33.7213	66.6668	-0.70	-0.27	0.00	15.50	7.376	-0.04830	7.13373	0.0
33.7413	66.6668	-0.70	-0.27	0.00	15.50	7.376	-0.05079	7.13371	0.0
33.7613	66.6668	-0.70	-0.27	0.00	15.50	7.376	-0.05328	7.13369	2.0
33.7813	66.6668	-0.70	-0.27	0.00	15.50	7.376	-0.05577	7.13367	0.0
33.8013	66.6668	-0.70	-0.27	0.00	15.50	7.376	-0.05826	7.13365	0.0
33.8213	66.6668	-0.70	-0.27	0.00	15.50	7.376	-0.06075	7.13363	0.0
33.8413	66.6668	-0.70	-0.27	0.00	15.50	7.376	-0.06324	7.13361	0.0
33.8613	66.6668	-0.70	-0.27	0.00	15.50	7.376	-0.06573	7.13359	0.0
33.8813	66.6668	-0.70	-0.27	0.00	15.50	7.376	-0.06822	7.13356	2.0
33.9013	66.6668	-0.70	-0.27	0.00	15.50	7.376	-0.07071	7.13354	0.0
33.9213	66.6668	-0.70	-0.27	0.00	15.50	7.376	-0.07320	7.13351	0.0
33.9413	66.6668	-0.70	-0.27	0.00	15.50	7.376	-0.07569	7.13349	0.0
33.9613	66.6668	-0.70	-0.27	0.00	15.50	7.376	-0.07818	7.13346	4.0
33.9813	66.6668	-0.70	-0.27	0.00	15.50	7.376	-0.08067	7.13343	0.0
34.0013	66.6668	-0.70	-0.27	0.00	15.50	7.376	-0.08316	7.13340	0.0
34.0213	66.6668	-0.70	-0.27	0.00	15.50	7.376	-0.08565	7.13338	0.0
34.0413	66.6668	-0.70	-0.27	0.00	15.50	7.376	-0.08814	7.13334	4.0
34.0613	66.6668	-0.70	-0.27	0.00	15.50	7.376	-0.09063	7.13331	0.0
34.0813	66.6668	-0.70	-0.27	0.00	15.50	7.376	-0.09312	7.13328	2.0
34.1013	66.6668	-0.70	-0.27	0.00	15.50	7.376	-0.09561	7.13325	0.0
34.1213	66.6668	-0.70	-0.27	0.00	15.50	7.376	-0.09810	7.13321	0.0
34.1413	66.6668	-0.70	-0.27	0.00	15.50	7.376	-0.10059	7.13318	2.0
34.1613	66.6668	-0.70	-0.27	0.00	15.50	7.376	-0.10308	7.13314	0.0
34.1813	66.6668	-0.70	-0.27	0.00	15.50	7.376	-0.10557	7.13311	2.0
34.2013	66.6668	-0.70	-0.27	0.00	15.50	7.376	-0.10806	7.13307	0.0
34.2213	66.6668	-0.70	-0.27	0.00	15.50	7.376	-0.11055	7.13303	0.0
34.2413	66.6668	-0.70	-0.27	0.00	15.50	7.376	-0.11304	7.13299	0.0
34.2613	66.6668	-0.70	-0.27	0.00	15.50	7.376	-0.11553	7.13295	0.0
34.2813	66.6668	-0.70	-0.27	0.00	15.50	7.376	-0.11802	7.13291	2.0
34.3013	66.6668	-0.70	-0.27	0.00	15.50	7.376	-0.12051	7.13287	0.0
34.3213	66.6668	-0.70	-0.27	0.00	15.50	7.376	-0.12300	7.13283	0.0
34.3413	66.6668	-0.70	-0.27	0.00	15.50	7.376	-0.12549	7.13279	2.0
34.3613	66.6668	-0.70	-0.27	0.00	15.50	7.376	-0.12798	7.13274	0.0
34.3813	66.6668	-0.70	-0.27	0.00	15.50	7.376	-0.13047	7.13270	0.0
34.4013	66.6668	-0.70	-0.27	0.00	15.50	7.376	-0.13296	7.13265	0.0
34.4213	66.6668	-0.70	-0.27	0.00	15.50	7.376	-0.13545	7.13260	0.0
34.4413	66.6668	-0.70	-0.27	0.00	15.50	7.376	-0.13794	7.13256	2.0
34.4613	66.6668	-0.70	-0.27	0.00	15.50	7.376	-0.14043	7.13251	2.0
34.4813	66.6668	-0.70	-0.27	0.00	15.50	7.376	-0.14292	7.13246	0.0
34.5013	66.6668	-0.70	-0.27	0.00	15.50	7.376	-0.14540	7.13241	0.0
34.5213	66.6668	-0.70	-0.27	0.00	15.50	7.376	-0.14789	7.13236	0.0
34.5413	66.6668	-0.70	-0.27	0.00	15.50	7.376	-0.15038	7.13230	0.0
34.5613	66.6668	-0.70	-0.27	0.00	15.50	7.376	-0.15287	7.13225	2.0
34.5813	66.6668	-0.70	-0.27	0.00	15.50	7.376	-0.15536	7.13220	0.0
34.6013	66.6668	-0.70	-0.27	0.00	15.50	7.376	-0.15785	7.13214	2.0
34.6213	66.6668	-0.70	-0.27	0.00	15.50	7.376	-0.16034	7.13209	0.0
34.6413	66.6668	-0.70	-0.27	0.00	15.50	7.376	-0.16283	7.13203	0.0
34.6613	66.6668	-0.70	-0.27	0.00	15.50	7.376	-0.16532	7.13197	0.0
34.6813	66.6668	-0.70	-0.27	0.00	15.50	7.376	-0.16781	7.13192	0.0

32.6913	66.6868	-0.70	-0.27	0.00	15.50	7.376	0.08121	7.13532	0.0
32.7113	66.6868	-0.70	-0.27	0.00	15.50	7.376	0.07872	7.13535	0.0
32.7313	66.6868	-0.70	-0.27	0.00	15.50	7.376	0.07623	7.13538	2.0
32.7513	66.6868	-0.70	-0.27	0.00	15.50	7.376	0.07374	7.13540	2.0
32.7713	66.6868	-0.70	-0.27	0.00	15.50	7.376	0.07125	7.13543	2.0
32.7913	66.6868	-0.70	-0.27	0.00	15.50	7.376	0.06876	7.13545	2.0
32.8113	66.6868	-0.70	-0.27	0.00	15.50	7.376	0.06627	7.13547	0.0
32.8313	66.6868	-0.70	-0.27	0.00	15.50	7.376	0.06378	7.13550	2.0
32.8513	66.6868	-0.70	-0.27	0.00	15.50	7.376	0.06129	7.13552	0.0
32.8713	66.6868	-0.70	-0.27	0.00	15.50	7.376	0.05880	7.13554	2.0
32.8913	66.6868	-0.70	-0.27	0.00	15.50	7.376	0.05631	7.13556	2.0
32.9113	66.6868	-0.70	-0.27	0.00	15.50	7.376	0.05381	7.13558	2.0
32.9313	66.6868	-0.70	-0.27	0.00	15.50	7.376	0.05132	7.13560	0.0
32.9513	66.6868	-0.70	-0.27	0.00	15.50	7.376	0.04883	7.13562	2.0
32.9713	66.6868	-0.70	-0.27	0.00	15.50	7.376	0.04634	7.13563	0.0
32.9913	66.6868	-0.70	-0.27	0.00	15.50	7.376	0.04385	7.13565	2.0
33.0113	66.6868	-0.70	-0.27	0.00	15.50	7.376	0.04136	7.13566	2.0
33.0313	66.6868	-0.70	-0.27	0.00	15.50	7.376	0.03887	7.13568	0.0
33.0513	66.6868	-0.70	-0.27	0.00	15.50	7.376	0.03638	7.13569	0.0
33.0713	66.6868	-0.70	-0.27	0.00	15.50	7.376	0.03389	7.13570	2.0
33.0913	66.6868	-0.70	-0.27	0.00	15.50	7.376	0.03140	7.13571	0.0
33.1113	66.6868	-0.70	-0.27	0.00	15.50	7.376	0.02891	7.13572	0.0
33.1313	66.6868	-0.70	-0.27	0.00	15.50	7.376	0.02642	7.13573	0.0
33.1513	66.6868	-0.70	-0.27	0.00	15.50	7.376	0.02392	7.13574	0.0
33.1713	66.6868	-0.70	-0.27	0.00	15.50	7.376	0.02143	7.13575	0.0
33.1913	66.6868	-0.70	-0.27	0.00	15.50	7.376	0.01894	7.13576	0.0
33.2113	66.6868	-0.70	-0.27	0.00	15.50	7.376	0.01645	7.13576	0.0
33.2313	66.6868	-0.70	-0.27	0.00	15.50	7.376	0.01396	7.13577	0.0
33.2513	66.6868	-0.70	-0.27	0.00	15.50	7.376	0.01147	7.13577	0.0
33.2713	66.6868	-0.70	-0.27	0.00	15.50	7.376	0.00898	7.13578	0.0
33.2913	66.6868	-0.70	-0.27	0.00	15.50	7.376	0.00649	7.13578	0.0
33.3113	66.6868	-0.70	-0.27	0.00	15.50	7.376	0.00400	7.13578	2.0
33.3313	66.6868	-0.70	-0.27	0.00	15.50	7.376	0.00151	7.13578	2.0
33.3513	66.6868	-0.70	-0.27	0.00	15.50	7.376	-0.00098	7.13578	2.0
33.3713	66.6868	-0.70	-0.27	0.00	15.50	7.376	-0.00347	7.13578	4.0
33.3913	66.6868	-0.70	-0.27	0.00	15.50	7.376	-0.00597	7.13578	2.0
33.4113	66.6868	-0.70	-0.27	0.00	15.50	7.376	-0.00846	7.13578	4.0
33.4313	66.6868	-0.70	-0.27	0.00	15.50	7.376	-0.01095	7.13577	0.0
33.4513	66.6868	-0.70	-0.27	0.00	15.50	7.376	-0.01344	7.13577	0.0
33.4713	66.6868	-0.70	-0.27	0.00	15.50	7.376	-0.01593	7.13576	0.0
33.4913	66.6868	-0.70	-0.27	0.00	15.50	7.376	-0.01842	7.13576	4.0
33.5113	66.6868	-0.70	-0.27	0.00	15.50	7.376	-0.02091	7.13575	4.0
33.5313	66.6868	-0.70	-0.27	0.00	15.50	7.376	-0.02340	7.13574	2.0
33.5513	66.6868	-0.70	-0.27	0.00	15.50	7.376	-0.02589	7.13574	4.0
33.5713	66.6868	-0.70	-0.27	0.00	15.50	7.376	-0.02838	7.13573	0.0
33.5913	66.6868	-0.70	-0.27	0.00	15.50	7.376	-0.03087	7.13572	0.0
33.6113	66.6868	-0.70	-0.27	0.00	15.50	7.376	-0.03336	7.13570	0.0
33.6313	66.6868	-0.70	-0.27	0.00	15.50	7.376	-0.03586	7.13569	0.0
33.6513	66.6868	-0.70	-0.27	0.00	15.50	7.376	-0.03835	7.13568	2.0
33.6713	66.6868	-0.70	-0.27	0.00	15.50	7.376	-0.04084	7.13567	4.0
33.6913	66.6868	-0.70	-0.27	0.00	15.50	7.376	-0.04333	7.13565	0.0
33.7113	66.6868	-0.70	-0.27	0.00	15.50	7.376	-0.04582	7.13564	0.0
33.7313	66.6868	-0.70	-0.27	0.00	15.50	7.376	-0.04831	7.13562	0.0
33.7513	66.6868	-0.70	-0.27	0.00	15.50	7.376	-0.05080	7.13560	0.0
33.7713	66.6868	-0.70	-0.27	0.00	15.50	7.376	-0.05329	7.13558	4.0
33.7913	66.6868	-0.70	-0.27	0.00	15.50	7.376	-0.05578	7.13556	0.0
33.8113	66.6868	-0.70	-0.27	0.00	15.50	7.376	-0.05827	7.13554	0.0
33.8313	66.6868	-0.70	-0.27	0.00	15.50	7.376	-0.06076	7.13552	0.0
33.8513	66.6868	-0.70	-0.27	0.00	15.50	7.376	-0.06325	7.13550	0.0
33.8713	66.6868	-0.70	-0.27	0.00	15.50	7.376	-0.06575	7.13548	0.0
33.8913	66.6868	-0.70	-0.27	0.00	15.50	7.376	-0.06824	7.13546	0.0
33.9113	66.6868	-0.70	-0.27	0.00	15.50	7.376	-0.07073	7.13543	2.0
33.9313	66.6868	-0.70	-0.27	0.00	15.50	7.376	-0.07322	7.13541	0.0
33.9513	66.6868	-0.70	-0.27	0.00	15.50	7.376	-0.07571	7.13538	0.0
33.9713	66.6868	-0.70	-0.27	0.00	15.50	7.376	-0.07820	7.13535	0.0
33.9913	66.6868	-0.70	-0.27	0.00	15.50	7.376	-0.08069	7.13533	0.0
34.0113	66.6868	-0.70	-0.27	0.00	15.50	7.376	-0.08318	7.13530	0.0
34.0313	66.6868	-0.70	-0.27	0.00	15.50	7.376	-0.08567	7.13527	4.0
34.0513	66.6868	-0.70	-0.27	0.00	15.50	7.376	-0.08816	7.13524	4.0
34.0713	66.6868	-0.70	-0.27	0.00	15.50	7.376	-0.09065	7.13521	0.0
34.0913	66.6868	-0.70	-0.27	0.00	15.50	7.376	-0.09314	7.13517	0.0
34.1113	66.6868	-0.70	-0.27	0.00	15.50	7.376	-0.09563	7.13514	0.0
34.1313	66.6868	-0.70	-0.27	0.00	15.50	7.376	-0.09812	7.13511	0.0
34.1513	66.6868	-0.70	-0.27	0.00	15.50	7.376	-0.10061	7.13507	0.0
34.1713	66.6868	-0.70	-0.27	0.00	15.50	7.376	-0.10311	7.13504	0.0
34.1913	66.6868	-0.70	-0.27	0.00	15.50	7.376	-0.10560	7.13500	2.0
34.2113	66.6868	-0.70	-0.27	0.00	15.50	7.376	-0.10809	7.13496	0.0
34.2313	66.6868	-0.70	-0.27	0.00	15.50	7.376	-0.11058	7.13493	0.0
34.2513	66.6868	-0.70	-0.27	0.00	15.50	7.376	-0.11307	7.13489	0.0
34.2713	66.6868	-0.70	-0.27	0.00	15.50	7.376	-0.11556	7.13485	0.0
34.2913	66.6868	-0.70	-0.27	0.00	15.50	7.376	-0.11805	7.13481	0.0
34.3113	66.6868	-0.70	-0.27	0.00	15.50	7.376	-0.12054	7.13476	0.0
34.3313	66.6868	-0.70	-0.27	0.00	15.50	7.376	-0.12303	7.13472	0.0
34.3513	66.6868	-0.70	-0.27	0.00	15.50	7.376	-0.12552	7.13468	0.0
34.3713	66.6868	-0.70	-0.27	0.00	15.50	7.376	-0.12801	7.13463	2.0
34.3913	66.6868	-0.70	-0.27	0.00	15.50	7.376	-0.13050	7.13459	0.0
34.4113	66.6868	-0.70	-0.27	0.00	15.50	7.376	-0.13299	7.13454	2.0
34.4313	66.6868	-0.70	-0.27	0.00	15.50	7.376	-0.13548	7.13450	0.0
34.4513	66.6868	-0.70	-0.27	0.00	15.50	7.376	-0.13797	7.13445	0.0
34.4713	66.6868	-0.70	-0.27	0.00	15.50	7.376	-0.14046	7.13440	0.0
34.4913	66.6868	-0.70	-0.27	0.00	15.50	7.376	-0.14295	7.13435	0.0
34.5113	66.6868	-0.70	-0.27	0.00	15.50	7.376	-0.14544	7.13430	0.0
34.5313	66.6868	-0.70	-0.27	0.00	15.50	7.376	-0.14793	7.13425	0.0
34.5513	66.6868	-0.70	-0.27	0.00	15.50	7.376	-0.15042	7.13420	0.0
34.5713	66.6868	-0.70	-0.27	0.00	15.50	7.376	-0.15291	7.13414	0.0
34.5913	66.6868	-0.70	-0.27	0.00	15.50	7.376	-0.15540	7.13409	0.0
34.6113	66.6868	-0.70	-0.27	0.00	15.50	7.376	-0.15790	7.13404	0.0
34.6313	66.6868	-0.70	-0.27	0.00	15.50	7.376	-0.16039	7.13398	0.0
34.6513	66.6868	-0.70	-0.27	0.00	15.50	7.376	-0.16288	7.13392	0.0
34.6713	66.6868	-0.70	-0.27	0.00	15.50	7.376	-0.16537	7.13387	4.0
34.6913	66.6868	-0.70	-0.27	0.00	15.50	7.376	-0.16786	7.13381	0.0

32.7013	66.7068	-0.70	-0.27	0.00	15.50	7.376	0.08123	7.13721	0.0
32.7213	66.7068	-0.70	-0.27	0.00	15.50	7.376	0.07874	7.13724	0.0
32.7413	66.7068	-0.70	-0.27	0.00	15.50	7.376	0.07625	7.13727	0.0
32.7613	66.7068	-0.70	-0.27	0.00	15.50	7.376	0.07376	7.13729	0.0
32.7813	66.7068	-0.70	-0.27	0.00	15.50	7.376	0.07127	7.13732	0.0
32.8013	66.7068	-0.70	-0.27	0.00	15.50	7.376	0.06878	7.13734	0.0
32.8213	66.7068	-0.70	-0.27	0.00	15.50	7.376	0.06629	7.13737	0.0
32.8413	66.7068	-0.70	-0.27	0.00	15.50	7.376	0.06379	7.13739	0.0
32.8613	66.7068	-0.70	-0.27	0.00	15.50	7.376	0.06130	7.13741	2.0
32.8813	66.7068	-0.70	-0.27	0.00	15.50	7.376	0.05881	7.13743	2.0
32.9013	66.7068	-0.70	-0.27	0.00	15.50	7.376	0.05632	7.13745	2.0
32.9213	66.7068	-0.70	-0.27	0.00	15.50	7.376	0.05383	7.13747	2.0
32.9413	66.7068	-0.70	-0.27	0.00	15.50	7.376	0.05134	7.13749	0.0
32.9613	66.7068	-0.70	-0.27	0.00	15.50	7.376	0.04885	7.13751	0.0
32.9813	66.7068	-0.70	-0.27	0.00	15.50	7.376	0.04635	7.13752	2.0
33.0013	66.7068	-0.70	-0.27	0.00	15.50	7.376	0.04386	7.13754	2.0
33.0213	66.7068	-0.70	-0.27	0.00	15.50	7.376	0.04137	7.13756	2.0
33.0413	66.7068	-0.70	-0.27	0.00	15.50	7.376	0.03888	7.13757	0.0
33.0613	66.7068	-0.70	-0.27	0.00	15.50	7.376	0.03639	7.13758	4.0
33.0813	66.7068	-0.70	-0.27	0.00	15.50	7.376	0.03390	7.13759	0.0
33.1013	66.7068	-0.70	-0.27	0.00	15.50	7.376	0.03141	7.13761	2.0
33.1213	66.7068	-0.70	-0.27	0.00	15.50	7.376	0.02891	7.13762	2.0
33.1413	66.7068	-0.70	-0.27	0.00	15.50	7.376	0.02642	7.13763	0.0
33.1613	66.7068	-0.70	-0.27	0.00	15.50	7.376	0.02393	7.13764	0.0
33.1813	66.7068	-0.70	-0.27	0.00	15.50	7.376	0.02144	7.13764	0.0
33.2013	66.7068	-0.70	-0.27	0.00	15.50	7.376	0.01895	7.13765	0.0
33.2213	66.7068	-0.70	-0.27	0.00	15.50	7.376	0.01646	7.13766	0.0
33.2413	66.7068	-0.70	-0.27	0.00	15.50	7.376	0.01396	7.13766	2.0
33.2613	66.7068	-0.70	-0.27	0.00	15.50	7.376	0.01147	7.13767	0.0
33.2813	66.7068	-0.70	-0.27	0.00	15.50	7.376	0.00898	7.13767	0.0
33.3013	66.7068	-0.70	-0.27	0.00	15.50	7.376	0.00649	7.13767	0.0
33.3213	66.7068	-0.70	-0.27	0.00	15.50	7.376	0.00400	7.13767	0.0
33.3413	66.7068	-0.70	-0.27	0.00	15.50	7.376	0.00151	7.13768	0.0
33.3613	66.7068	-0.70	-0.27	0.00	15.50	7.376	-0.00098	7.13768	0.0
33.3813	66.7068	-0.70	-0.27	0.00	15.50	7.376	-0.00348	7.13767	0.0
33.4013	66.7068	-0.70	-0.27	0.00	15.50	7.376	-0.00597	7.13767	0.0
33.4213	66.7068	-0.70	-0.27	0.00	15.50	7.376	-0.00846	7.13767	0.0
33.4413	66.7068	-0.70	-0.27	0.00	15.50	7.376	-0.01095	7.13767	0.0
33.4613	66.7068	-0.70	-0.27	0.00	15.50	7.376	-0.01344	7.13766	6.0
33.4813	66.7068	-0.70	-0.27	0.00	15.50	7.376	-0.01593	7.13766	2.0
33.5013	66.7068	-0.70	-0.27	0.00	15.50	7.376	-0.01842	7.13765	0.0
33.5213	66.7068	-0.70	-0.27	0.00	15.50	7.376	-0.02092	7.13764	0.0
33.5413	66.7068	-0.70	-0.27	0.00	15.50	7.376	-0.02341	7.13764	2.0
33.5613	66.7068	-0.70	-0.27	0.00	15.50	7.376	-0.02590	7.13763	2.0
33.5813	66.7068	-0.70	-0.27	0.00	15.50	7.376	-0.02839	7.13762	0.0
33.6013	66.7068	-0.70	-0.27	0.00	15.50	7.376	-0.03088	7.13761	0.0
33.6213	66.7068	-0.70	-0.27	0.00	15.50	7.376	-0.03337	7.13760	0.0
33.6413	66.7068	-0.70	-0.27	0.00	15.50	7.376	-0.03587	7.13759	0.0
33.6613	66.7068	-0.70	-0.27	0.00	15.50	7.376	-0.03836	7.13757	0.0
33.6813	66.7068	-0.70	-0.27	0.00	15.50	7.376	-0.04085	7.13756	0.0
33.7013	66.7068	-0.70	-0.27	0.00	15.50	7.376	-0.04334	7.13754	0.0
33.7213	66.7068	-0.70	-0.27	0.00	15.50	7.376	-0.04583	7.13753	0.0
33.7413	66.7068	-0.70	-0.27	0.00	15.50	7.376	-0.04832	7.13751	0.0
33.7613	66.7068	-0.70	-0.27	0.00	15.50	7.376	-0.05081	7.13749	2.0
33.7813	66.7068	-0.70	-0.27	0.00	15.50	7.376	-0.05331	7.13748	2.0
33.8013	66.7068	-0.70	-0.27	0.00	15.50	7.376	-0.05580	7.13746	0.0
33.8213	66.7068	-0.70	-0.27	0.00	15.50	7.376	-0.05829	7.13744	2.0
33.8413	66.7068	-0.70	-0.27	0.00	15.50	7.376	-0.06078	7.13742	0.0
33.8613	66.7068	-0.70	-0.27	0.00	15.50	7.376	-0.06327	7.13739	2.0
33.8813	66.7068	-0.70	-0.27	0.00	15.50	7.376	-0.06576	7.13737	4.0
33.9013	66.7068	-0.70	-0.27	0.00	15.50	7.376	-0.06825	7.13735	0.0
33.9213	66.7068	-0.70	-0.27	0.00	15.50	7.376	-0.07075	7.13732	0.0
33.9413	66.7068	-0.70	-0.27	0.00	15.50	7.376	-0.07324	7.13730	2.0
33.9613	66.7068	-0.70	-0.27	0.00	15.50	7.376	-0.07573	7.13727	0.0
33.9813	66.7068	-0.70	-0.27	0.00	15.50	7.376	-0.07822	7.13725	0.0
34.0013	66.7068	-0.70	-0.27	0.00	15.50	7.376	-0.08071	7.13722	0.0
34.0213	66.7068	-0.70	-0.27	0.00	15.50	7.376	-0.08320	7.13719	0.0
34.0413	66.7068	-0.70	-0.27	0.00	15.50	7.376	-0.08569	7.13716	0.0
34.0613	66.7068	-0.70	-0.27	0.00	15.50	7.376	-0.08819	7.13713	0.0
34.0813	66.7068	-0.70	-0.27	0.00	15.50	7.376	-0.09068	7.13710	2.0
34.1013	66.7068	-0.70	-0.27	0.00	15.50	7.376	-0.09317	7.13707	2.0
34.1213	66.7068	-0.70	-0.27	0.00	15.50	7.376	-0.09566	7.13703	0.0
34.1413	66.7068	-0.70	-0.27	0.00	15.50	7.376	-0.09815	7.13700	2.0
34.1613	66.7068	-0.70	-0.27	0.00	15.50	7.376	-0.10064	7.13697	0.0
34.1813	66.7068	-0.70	-0.27	0.00	15.50	7.376	-0.10313	7.13693	0.0
34.2013	66.7068	-0.70	-0.27	0.00	15.50	7.376	-0.10562	7.13689	0.0
34.2213	66.7068	-0.70	-0.27	0.00	15.50	7.376	-0.10812	7.13686	0.0
34.2413	66.7068	-0.70	-0.27	0.00	15.50	7.376	-0.11061	7.13682	0.0
34.2613	66.7068	-0.70	-0.27	0.00	15.50	7.376	-0.11310	7.13678	2.0
34.2813	66.7068	-0.70	-0.27	0.00	15.50	7.376	-0.11559	7.13674	0.0
34.3013	66.7068	-0.70	-0.27	0.00	15.50	7.376	-0.11808	7.13670	0.0
34.3213	66.7068	-0.70	-0.27	0.00	15.50	7.376	-0.12057	7.13666	0.0
34.3413	66.7068	-0.70	-0.27	0.00	15.50	7.376	-0.12306	7.13661	0.0
34.3613	66.7068	-0.70	-0.27	0.00	15.50	7.376	-0.12555	7.13657	0.0
34.3813	66.7068	-0.70	-0.27	0.00	15.50	7.376	-0.12804	7.13653	0.0
34.4013	66.7068	-0.70	-0.27	0.00	15.50	7.376	-0.13054	7.13648	2.0
34.4213	66.7068	-0.70	-0.27	0.00	15.50	7.376	-0.13303	7.13644	4.0
34.4413	66.7068	-0.70	-0.27	0.00	15.50	7.376	-0.13552	7.13639	2.0
34.4613	66.7068	-0.70	-0.27	0.00	15.50	7.376	-0.13801	7.13634	0.0
34.4813	66.7068	-0.70	-0.27	0.00	15.50	7.376	-0.14050	7.13629	0.0
34.5013	66.7068	-0.70	-0.27	0.00	15.50	7.376	-0.14299	7.13624	0.0
34.5213	66.7068	-0.70	-0.27	0.00	15.50	7.376	-0.14548	7.13619	0.0
34.5413	66.7068	-0.70	-0.27	0.00	15.50	7.376	-0.14797	7.13614	0.0
34.5613	66.7068	-0.70	-0.27	0.00	15.50	7.376	-0.15046	7.13609	0.0
34.5813	66.7068	-0.70	-0.27	0.00	15.50	7.376	-0.15296	7.13604	2.0
34.6013	66.7068	-0.70	-0.27	0.00	15.50	7.376	-0.15545	7.13598	0.0
34.6213	66.7068	-0.70	-0.27	0.00	15.50	7.376	-0.15794	7.13593	0.0
34.6413	66.7068	-0.70	-0.27	0.00	15.50	7.376	-0.16043	7.13587	0.0
34.6613	66.7068	-0.70	-0.27	0.00	15.50	7.376	-0.16292	7.13582	0.0
34.6813	66.7068	-0.70	-0.27	0.00	15.50	7.376	-0.16541	7.13576	0.0
34.7013	66.7068	-0.70	-0.27	0.00	15.50	7.376	-0.16790	7.13570	2.0

32.7113	66.7268	-0.70	-0.27	0.00	15.50	7.376	0.08126	7.13911	0.0
32.7313	66.7268	-0.70	-0.27	0.00	15.50	7.376	0.07876	7.13913	0.0
32.7513	66.7268	-0.70	-0.27	0.00	15.50	7.376	0.07627	7.13916	0.0
32.7713	66.7268	-0.70	-0.27	0.00	15.50	7.376	0.07378	7.13919	0.0
32.7913	66.7268	-0.70	-0.27	0.00	15.50	7.376	0.07129	7.13921	0.0
32.8113	66.7268	-0.70	-0.27	0.00	15.50	7.376	0.06880	7.13924	0.0
32.8313	66.7268	-0.70	-0.27	0.00	15.50	7.376	0.06630	7.13926	0.0
32.8513	66.7268	-0.70	-0.27	0.00	15.50	7.376	0.06381	7.13928	2.0
32.8713	66.7268	-0.70	-0.27	0.00	15.50	7.376	0.06132	7.13930	0.0
32.8913	66.7268	-0.70	-0.27	0.00	15.50	7.376	0.05883	7.13933	0.0
32.9113	66.7268	-0.70	-0.27	0.00	15.50	7.376	0.05634	7.13935	0.0
32.9313	66.7268	-0.70	-0.27	0.00	15.50	7.376	0.05384	7.13936	0.0
32.9513	66.7268	-0.70	-0.27	0.00	15.50	7.376	0.05135	7.13938	0.0
32.9713	66.7268	-0.70	-0.27	0.00	15.50	7.376	0.04886	7.13940	0.0
32.9913	66.7268	-0.70	-0.27	0.00	15.50	7.376	0.04637	7.13942	2.0
33.0113	66.7268	-0.70	-0.27	0.00	15.50	7.376	0.04387	7.13943	2.0
33.0313	66.7268	-0.70	-0.27	0.00	15.50	7.376	0.04138	7.13945	2.0
33.0513	66.7268	-0.70	-0.27	0.00	15.50	7.376	0.03889	7.13946	0.0
33.0713	66.7268	-0.70	-0.27	0.00	15.50	7.376	0.03640	7.13947	2.0
33.0913	66.7268	-0.70	-0.27	0.00	15.50	7.376	0.03391	7.13949	0.0
33.1113	66.7268	-0.70	-0.27	0.00	15.50	7.376	0.03141	7.13950	2.0
33.1313	66.7268	-0.70	-0.27	0.00	15.50	7.376	0.02892	7.13951	0.0
33.1513	66.7268	-0.70	-0.27	0.00	15.50	7.376	0.02643	7.13952	0.0
33.1713	66.7268	-0.70	-0.27	0.00	15.50	7.376	0.02394	7.13953	0.0
33.1913	66.7268	-0.70	-0.27	0.00	15.50	7.376	0.02145	7.13954	0.0
33.2113	66.7268	-0.70	-0.27	0.00	15.50	7.376	0.01895	7.13954	0.0
33.2313	66.7268	-0.70	-0.27	0.00	15.50	7.376	0.01646	7.13955	0.0
33.2513	66.7268	-0.70	-0.27	0.00	15.50	7.376	0.01397	7.13955	0.0
33.2713	66.7268	-0.70	-0.27	0.00	15.50	7.376	0.01148	7.13956	0.0
33.2913	66.7268	-0.70	-0.27	0.00	15.50	7.376	0.00898	7.13956	2.0
33.3113	66.7268	-0.70	-0.27	0.00	15.50	7.376	0.00649	7.13956	8.0
33.3313	66.7268	-0.70	-0.27	0.00	15.50	7.376	0.00400	7.13957	2.0
33.3513	66.7268	-0.70	-0.27	0.00	15.50	7.376	0.00151	7.13957	2.0
33.3713	66.7268	-0.70	-0.27	0.00	15.50	7.376	-0.00098	7.13957	0.0
33.3913	66.7268	-0.70	-0.27	0.00	15.50	7.376	-0.00348	7.13957	2.0
33.4113	66.7268	-0.70	-0.27	0.00	15.50	7.376	-0.00597	7.13957	0.0
33.4313	66.7268	-0.70	-0.27	0.00	15.50	7.376	-0.00846	7.13956	0.0
33.4513	66.7268	-0.70	-0.27	0.00	15.50	7.376	-0.01095	7.13956	2.0
33.4713	66.7268	-0.70	-0.27	0.00	15.50	7.376	-0.01345	7.13956	2.0
33.4913	66.7268	-0.70	-0.27	0.00	15.50	7.376	-0.01594	7.13955	0.0
33.5113	66.7268	-0.70	-0.27	0.00	15.50	7.376	-0.01843	7.13954	0.0
33.5313	66.7268	-0.70	-0.27	0.00	15.50	7.376	-0.02092	7.13954	2.0
33.5513	66.7268	-0.70	-0.27	0.00	15.50	7.376	-0.02341	7.13953	0.0
33.5713	66.7268	-0.70	-0.27	0.00	15.50	7.376	-0.02591	7.13952	4.0
33.5913	66.7268	-0.70	-0.27	0.00	15.50	7.376	-0.02840	7.13951	2.0
33.6113	66.7268	-0.70	-0.27	0.00	15.50	7.376	-0.03089	7.13950	0.0
33.6313	66.7268	-0.70	-0.27	0.00	15.50	7.376	-0.03338	7.13949	0.0
33.6513	66.7268	-0.70	-0.27	0.00	15.50	7.376	-0.03587	7.13948	0.0
33.6713	66.7268	-0.70	-0.27	0.00	15.50	7.376	-0.03837	7.13946	0.0
33.6913	66.7268	-0.70	-0.27	0.00	15.50	7.376	-0.04086	7.13945	2.0
33.7113	66.7268	-0.70	-0.27	0.00	15.50	7.376	-0.04335	7.13944	2.0
33.7313	66.7268	-0.70	-0.27	0.00	15.50	7.376	-0.04584	7.13942	4.0
33.7513	66.7268	-0.70	-0.27	0.00	15.50	7.376	-0.04834	7.13940	6.0
33.7713	66.7268	-0.70	-0.27	0.00	15.50	7.376	-0.05083	7.13939	0.0
33.7913	66.7268	-0.70	-0.27	0.00	15.50	7.376	-0.05332	7.13937	2.0
33.8113	66.7268	-0.70	-0.27	0.00	15.50	7.376	-0.05581	7.13935	2.0
33.8313	66.7268	-0.70	-0.27	0.00	15.50	7.376	-0.05830	7.13933	0.0
33.8513	66.7268	-0.70	-0.27	0.00	15.50	7.376	-0.06080	7.13931	0.0
33.8713	66.7268	-0.70	-0.27	0.00	15.50	7.376	-0.06329	7.13929	4.0
33.8913	66.7268	-0.70	-0.27	0.00	15.50	7.376	-0.06578	7.13926	0.0
33.9113	66.7268	-0.70	-0.27	0.00	15.50	7.376	-0.06827	7.13924	4.0
33.9313	66.7268	-0.70	-0.27	0.00	15.50	7.376	-0.07076	7.13922	0.0
33.9513	66.7268	-0.70	-0.27	0.00	15.50	7.376	-0.07326	7.13919	0.0
33.9713	66.7268	-0.70	-0.27	0.00	15.50	7.376	-0.07575	7.13917	2.0
33.9913	66.7268	-0.70	-0.27	0.00	15.50	7.376	-0.07824	7.13914	2.0
34.0113	66.7268	-0.70	-0.27	0.00	15.50	7.376	-0.08073	7.13911	0.0
34.0313	66.7268	-0.70	-0.27	0.00	15.50	7.376	-0.08322	7.13908	0.0
34.0513	66.7268	-0.70	-0.27	0.00	15.50	7.376	-0.08572	7.13905	4.0
34.0713	66.7268	-0.70	-0.27	0.00	15.50	7.376	-0.08821	7.13902	2.0
34.0913	66.7268	-0.70	-0.27	0.00	15.50	7.376	-0.09070	7.13899	0.0
34.1113	66.7268	-0.70	-0.27	0.00	15.50	7.376	-0.09319	7.13896	2.0
34.1313	66.7268	-0.70	-0.27	0.00	15.50	7.376	-0.09568	7.13893	0.0
34.1513	66.7268	-0.70	-0.27	0.00	15.50	7.376	-0.09818	7.13889	2.0
34.1713	66.7268	-0.70	-0.27	0.00	15.50	7.376	-0.10067	7.13886	0.0
34.1913	66.7268	-0.70	-0.27	0.00	15.50	7.376	-0.10316	7.13882	0.0
34.2113	66.7268	-0.70	-0.27	0.00	15.50	7.376	-0.10565	7.13879	2.0
34.2313	66.7268	-0.70	-0.27	0.00	15.50	7.376	-0.10814	7.13875	0.0
34.2513	66.7268	-0.70	-0.27	0.00	15.50	7.376	-0.11064	7.13871	0.0
34.2713	66.7268	-0.70	-0.27	0.00	15.50	7.376	-0.11313	7.13867	0.0
34.2913	66.7268	-0.70	-0.27	0.00	15.50	7.376	-0.11562	7.13863	2.0
34.3113	66.7268	-0.70	-0.27	0.00	15.50	7.376	-0.11811	7.13859	4.0
34.3313	66.7268	-0.70	-0.27	0.00	15.50	7.376	-0.12060	7.13855	0.0
34.3513	66.7268	-0.70	-0.27	0.00	15.50	7.376	-0.12310	7.13851	0.0
34.3713	66.7268	-0.70	-0.27	0.00	15.50	7.376	-0.12559	7.13846	0.0
34.3913	66.7268	-0.70	-0.27	0.00	15.50	7.376	-0.12808	7.13842	2.0
34.4113	66.7268	-0.70	-0.27	0.00	15.50	7.376	-0.13057	7.13837	2.0
34.4313	66.7268	-0.70	-0.27	0.00	15.50	7.376	-0.13306	7.13833	2.0
34.4513	66.7268	-0.70	-0.27	0.00	15.50	7.376	-0.13555	7.13828	0.0
34.4713	66.7268	-0.70	-0.27	0.00	15.50	7.376	-0.13805	7.13823	0.0
34.4913	66.7268	-0.70	-0.27	0.00	15.50	7.376	-0.14054	7.13818	6.0
34.5113	66.7268	-0.70	-0.27	0.00	15.50	7.376	-0.14303	7.13813	2.0
34.5313	66.7268	-0.70	-0.27	0.00	15.50	7.376	-0.14552	7.13808	2.0
34.5513	66.7268	-0.70	-0.27	0.00	15.50	7.376	-0.14801	7.13803	0.0
34.5713	66.7268	-0.70	-0.27	0.00	15.50	7.376	-0.15050	7.13798	0.0
34.5913	66.7268	-0.70	-0.27	0.00	15.50	7.376	-0.15300	7.13793	2.0
34.6113	66.7268	-0.70	-0.27	0.00	15.50	7.376	-0.15549	7.13787	0.0
34.6313	66.7268	-0.70	-0.27	0.00	15.50	7.376	-0.15798	7.13782	2.0
34.6513	66.7268	-0.70	-0.27	0.00	15.50	7.376	-0.16047	7.13776	2.0
34.6713	66.7268	-0.70	-0.27	0.00	15.50	7.376	-0.16296	7.13771	4.0
34.6913	66.7268	-0.70	-0.27	0.00	15.50	7.376	-0.16545	7.13765	4.0
34.7113	66.7268	-0.70	-0.27	0.00	15.50	7.376	-0.16794	7.13759	0.0

32.7213	66.7468	-0.70	-0.27	0.00	15.50	7.376	0.08128	7.14100	0.0
32.7413	66.7468	-0.70	-0.27	0.00	15.50	7.376	0.07878	7.14103	0.0
32.7613	66.7468	-0.70	-0.27	0.00	15.50	7.376	0.07629	7.14105	2.0
32.7813	66.7468	-0.70	-0.27	0.00	15.50	7.376	0.07380	7.14108	2.0
32.8013	66.7468	-0.70	-0.27	0.00	15.50	7.376	0.07131	7.14110	2.0
32.8213	66.7468	-0.70	-0.27	0.00	15.50	7.376	0.06881	7.14113	2.0
32.8413	66.7468	-0.70	-0.27	0.00	15.50	7.376	0.06632	7.14115	0.0
32.8613	66.7468	-0.70	-0.27	0.00	15.50	7.376	0.06383	7.14117	4.0
32.8813	66.7468	-0.70	-0.27	0.00	15.50	7.376	0.06134	7.14120	2.0
32.9013	66.7468	-0.70	-0.27	0.00	15.50	7.376	0.05884	7.14122	0.0
32.9213	66.7468	-0.70	-0.27	0.00	15.50	7.376	0.05635	7.14124	0.0
32.9413	66.7468	-0.70	-0.27	0.00	15.50	7.376	0.05386	7.14126	0.0
32.9613	66.7468	-0.70	-0.27	0.00	15.50	7.376	0.05136	7.14128	2.0
32.9813	66.7468	-0.70	-0.27	0.00	15.50	7.376	0.04887	7.14129	0.0
33.0013	66.7468	-0.70	-0.27	0.00	15.50	7.376	0.04638	7.14131	0.0
33.0213	66.7468	-0.70	-0.27	0.00	15.50	7.376	0.04389	7.14133	0.0
33.0413	66.7468	-0.70	-0.27	0.00	15.50	7.376	0.04139	7.14134	0.0
33.0613	66.7468	-0.70	-0.27	0.00	15.50	7.376	0.03890	7.14135	0.0
33.0813	66.7468	-0.70	-0.27	0.00	15.50	7.376	0.03641	7.14137	2.0
33.1013	66.7468	-0.70	-0.27	0.00	15.50	7.376	0.03391	7.14138	2.0
33.1213	66.7468	-0.70	-0.27	0.00	15.50	7.376	0.03142	7.14139	0.0
33.1413	66.7468	-0.70	-0.27	0.00	15.50	7.376	0.02893	7.14140	0.0
33.1613	66.7468	-0.70	-0.27	0.00	15.50	7.376	0.02644	7.14141	0.0
33.1813	66.7468	-0.70	-0.27	0.00	15.50	7.376	0.02394	7.14142	0.0
33.2013	66.7468	-0.70	-0.27	0.00	15.50	7.376	0.02145	7.14143	2.0
33.2213	66.7468	-0.70	-0.27	0.00	15.50	7.376	0.01896	7.14143	2.0
33.2413	66.7468	-0.70	-0.27	0.00	15.50	7.376	0.01647	7.14144	0.0
33.2613	66.7468	-0.70	-0.27	0.00	15.50	7.376	0.01397	7.14145	0.0
33.2813	66.7468	-0.70	-0.27	0.00	15.50	7.376	0.01148	7.14145	0.0
33.3013	66.7468	-0.70	-0.27	0.00	15.50	7.376	0.00899	7.14145	0.0
33.3213	66.7468	-0.70	-0.27	0.00	15.50	7.376	0.00649	7.14146	0.0
33.3413	66.7468	-0.70	-0.27	0.00	15.50	7.376	0.00400	7.14146	0.0
33.3613	66.7468	-0.70	-0.27	0.00	15.50	7.376	0.00151	7.14146	0.0
33.3813	66.7468	-0.70	-0.27	0.00	15.50	7.376	-0.00098	7.14146	0.0
33.4013	66.7468	-0.70	-0.27	0.00	15.50	7.376	-0.00348	7.14146	0.0
33.4213	66.7468	-0.70	-0.27	0.00	15.50	7.376	-0.00597	7.14146	2.0
33.4413	66.7468	-0.70	-0.27	0.00	15.50	7.376	-0.00846	7.14146	0.0
33.4613	66.7468	-0.70	-0.27	0.00	15.50	7.376	-0.01096	7.14145	0.0
33.4813	66.7468	-0.70	-0.27	0.00	15.50	7.376	-0.01345	7.14145	2.0
33.5013	66.7468	-0.70	-0.27	0.00	15.50	7.376	-0.01594	7.14144	0.0
33.5213	66.7468	-0.70	-0.27	0.00	15.50	7.376	-0.01843	7.14144	0.0
33.5413	66.7468	-0.70	-0.27	0.00	15.50	7.376	-0.02093	7.14143	0.0
33.5613	66.7468	-0.70	-0.27	0.00	15.50	7.376	-0.02342	7.14142	2.0
33.5813	66.7468	-0.70	-0.27	0.00	15.50	7.376	-0.02591	7.14141	0.0
33.6013	66.7468	-0.70	-0.27	0.00	15.50	7.376	-0.02841	7.14140	4.0
33.6213	66.7468	-0.70	-0.27	0.00	15.50	7.376	-0.03090	7.14139	0.0
33.6413	66.7468	-0.70	-0.27	0.00	15.50	7.376	-0.03339	7.14138	0.0
33.6613	66.7468	-0.70	-0.27	0.00	15.50	7.376	-0.03588	7.14137	0.0
33.6813	66.7468	-0.70	-0.27	0.00	15.50	7.376	-0.03838	7.14136	0.0
33.7013	66.7468	-0.70	-0.27	0.00	15.50	7.376	-0.04087	7.14134	0.0
33.7213	66.7468	-0.70	-0.27	0.00	15.50	7.376	-0.04336	7.14133	0.0
33.7413	66.7468	-0.70	-0.27	0.00	15.50	7.376	-0.04586	7.14131	2.0
33.7613	66.7468	-0.70	-0.27	0.00	15.50	7.376	-0.04835	7.14130	0.0
33.7813	66.7468	-0.70	-0.27	0.00	15.50	7.376	-0.05084	7.14128	0.0
33.8013	66.7468	-0.70	-0.27	0.00	15.50	7.376	-0.05333	7.14126	0.0
33.8213	66.7468	-0.70	-0.27	0.00	15.50	7.376	-0.05583	7.14124	0.0
33.8413	66.7468	-0.70	-0.27	0.00	15.50	7.376	-0.05832	7.14122	4.0
33.8613	66.7468	-0.70	-0.27	0.00	15.50	7.376	-0.06081	7.14120	0.0
33.8813	66.7468	-0.70	-0.27	0.00	15.50	7.376	-0.06330	7.14118	0.0
33.9013	66.7468	-0.70	-0.27	0.00	15.50	7.376	-0.06580	7.14116	0.0
33.9213	66.7468	-0.70	-0.27	0.00	15.50	7.376	-0.06829	7.14113	0.0
33.9413	66.7468	-0.70	-0.27	0.00	15.50	7.376	-0.07078	7.14111	0.0
33.9613	66.7468	-0.70	-0.27	0.00	15.50	7.376	-0.07328	7.14108	0.0
33.9813	66.7468	-0.70	-0.27	0.00	15.50	7.376	-0.07577	7.14106	2.0
34.0013	66.7468	-0.70	-0.27	0.00	15.50	7.376	-0.07826	7.14103	0.0
34.0213	66.7468	-0.70	-0.27	0.00	15.50	7.376	-0.08075	7.14100	0.0
34.0413	66.7468	-0.70	-0.27	0.00	15.50	7.376	-0.08325	7.14097	0.0
34.0613	66.7468	-0.70	-0.27	0.00	15.50	7.376	-0.08574	7.14095	2.0
34.0813	66.7468	-0.70	-0.27	0.00	15.50	7.376	-0.08823	7.14091	0.0
34.1013	66.7468	-0.70	-0.27	0.00	15.50	7.376	-0.09072	7.14088	4.0
34.1213	66.7468	-0.70	-0.27	0.00	15.50	7.376	-0.09322	7.14085	0.0
34.1413	66.7468	-0.70	-0.27	0.00	15.50	7.376	-0.09571	7.14082	0.0
34.1613	66.7468	-0.70	-0.27	0.00	15.50	7.376	-0.09820	7.14078	0.0
34.1813	66.7468	-0.70	-0.27	0.00	15.50	7.376	-0.10069	7.14075	0.0
34.2013	66.7468	-0.70	-0.27	0.00	15.50	7.376	-0.10319	7.14071	0.0
34.2213	66.7468	-0.70	-0.27	0.00	15.50	7.376	-0.10568	7.14068	0.0
34.2413	66.7468	-0.70	-0.27	0.00	15.50	7.376	-0.10817	7.14064	0.0
34.2613	66.7468	-0.70	-0.27	0.00	15.50	7.376	-0.11067	7.14060	0.0
34.2813	66.7468	-0.70	-0.27	0.00	15.50	7.376	-0.11316	7.14056	4.0
34.3013	66.7468	-0.70	-0.27	0.00	15.50	7.376	-0.11565	7.14052	0.0
34.3213	66.7468	-0.70	-0.27	0.00	15.50	7.376	-0.11814	7.14048	0.0
34.3413	66.7468	-0.70	-0.27	0.00	15.50	7.376	-0.12064	7.14044	2.0
34.3613	66.7468	-0.70	-0.27	0.00	15.50	7.376	-0.12313	7.14040	0.0
34.3813	66.7468	-0.70	-0.27	0.00	15.50	7.376	-0.12562	7.14036	2.0
34.4013	66.7468	-0.70	-0.27	0.00	15.50	7.376	-0.12811	7.14031	2.0
34.4213	66.7468	-0.70	-0.27	0.00	15.50	7.376	-0.13061	7.14027	0.0
34.4413	66.7468	-0.70	-0.27	0.00	15.50	7.376	-0.13310	7.14022	0.0
34.4613	66.7468	-0.70	-0.27	0.00	15.50	7.376	-0.13559	7.14017	0.0
34.4813	66.7468	-0.70	-0.27	0.00	15.50	7.376	-0.13808	7.14012	0.0
34.5013	66.7468	-0.70	-0.27	0.00	15.50	7.376	-0.14057	7.14008	0.0
34.5213	66.7468	-0.70	-0.27	0.00	15.50	7.376	-0.14307	7.14003	0.0
34.5413	66.7468	-0.70	-0.27	0.00	15.50	7.376	-0.14556	7.13998	4.0
34.5613	66.7468	-0.70	-0.27	0.00	15.50	7.376	-0.14805	7.13993	0.0
34.5813	66.7468	-0.70	-0.27	0.00	15.50	7.376	-0.15054	7.13987	0.0
34.6013	66.7468	-0.70	-0.27	0.00	15.50	7.376	-0.15304	7.13982	0.0
34.6213	66.7468	-0.70	-0.27	0.00	15.50	7.376	-0.15553	7.13977	2.0
34.6413	66.7468	-0.70	-0.27	0.00	15.50	7.376	-0.15802	7.13971	2.0
34.6613	66.7468	-0.70	-0.27	0.00	15.50	7.376	-0.16051	7.13966	2.0
34.6813	66.7468	-0.70	-0.27	0.00	15.50	7.376	-0.16301	7.13960	0.0
34.7013	66.7468	-0.70	-0.27	0.00	15.50	7.376	-0.16550	7.13954	2.0
34.7213	66.7468	-0.70	-0.27	0.00	15.50	7.376	-0.16799	7.13948	0.0

32.7313	66.7668	-0.70	-0.27	0.00	15.50	7.376	0.08130	7.14289	2.0
32.7513	66.7668	-0.70	-0.27	0.00	15.50	7.376	0.07881	7.14292	2.0
32.7713	66.7668	-0.70	-0.27	0.00	15.50	7.376	0.07631	7.14294	4.0
32.7913	66.7668	-0.70	-0.27	0.00	15.50	7.376	0.07382	7.14297	2.0
32.8113	66.7668	-0.70	-0.27	0.00	15.50	7.376	0.07133	7.14300	2.0
32.8313	66.7668	-0.70	-0.27	0.00	15.50	7.376	0.06883	7.14302	0.0
32.8513	66.7668	-0.70	-0.27	0.00	15.50	7.376	0.06634	7.14304	2.0
32.8713	66.7668	-0.70	-0.27	0.00	15.50	7.376	0.06385	7.14307	2.0
32.8913	66.7668	-0.70	-0.27	0.00	15.50	7.376	0.06135	7.14309	2.0
32.9113	66.7668	-0.70	-0.27	0.00	15.50	7.376	0.05886	7.14311	0.0
32.9313	66.7668	-0.70	-0.27	0.00	15.50	7.376	0.05636	7.14313	0.0
32.9513	66.7668	-0.70	-0.27	0.00	15.50	7.376	0.05387	7.14315	0.0
32.9713	66.7668	-0.70	-0.27	0.00	15.50	7.376	0.05138	7.14317	2.0
32.9913	66.7668	-0.70	-0.27	0.00	15.50	7.376	0.04888	7.14318	0.0
33.0113	66.7668	-0.70	-0.27	0.00	15.50	7.376	0.04639	7.14320	0.0
33.0313	66.7668	-0.70	-0.27	0.00	15.50	7.376	0.04390	7.14322	0.0
33.0513	66.7668	-0.70	-0.27	0.00	15.50	7.376	0.04140	7.14323	0.0
33.0713	66.7668	-0.70	-0.27	0.00	15.50	7.376	0.03891	7.14325	0.0
33.0913	66.7668	-0.70	-0.27	0.00	15.50	7.376	0.03642	7.14326	0.0
33.1113	66.7668	-0.70	-0.27	0.00	15.50	7.376	0.03392	7.14327	0.0
33.1313	66.7668	-0.70	-0.27	0.00	15.50	7.376	0.03143	7.14328	2.0
33.1513	66.7668	-0.70	-0.27	0.00	15.50	7.376	0.02894	7.14329	0.0
33.1713	66.7668	-0.70	-0.27	0.00	15.50	7.376	0.02644	7.14330	0.0
33.1913	66.7668	-0.70	-0.27	0.00	15.50	7.376	0.02395	7.14331	0.0
33.2113	66.7668	-0.70	-0.27	0.00	15.50	7.376	0.02146	7.14332	2.0
33.2313	66.7668	-0.70	-0.27	0.00	15.50	7.376	0.01896	7.14333	4.0
33.2513	66.7668	-0.70	-0.27	0.00	15.50	7.376	0.01647	7.14333	2.0
33.2713	66.7668	-0.70	-0.27	0.00	15.50	7.376	0.01398	7.14334	0.0
33.2913	66.7668	-0.70	-0.27	0.00	15.50	7.376	0.01148	7.14334	2.0
33.3113	66.7668	-0.70	-0.27	0.00	15.50	7.376	0.00899	7.14335	0.0
33.3313	66.7668	-0.70	-0.27	0.00	15.50	7.376	0.00650	7.14335	2.0
33.3513	66.7668	-0.70	-0.27	0.00	15.50	7.376	0.00400	7.14335	2.0
33.3713	66.7668	-0.70	-0.27	0.00	15.50	7.376	0.00151	7.14335	0.0
33.3913	66.7668	-0.70	-0.27	0.00	15.50	7.376	-0.00098	7.14335	2.0
33.4113	66.7668	-0.70	-0.27	0.00	15.50	7.376	-0.00348	7.14335	2.0
33.4313	66.7668	-0.70	-0.27	0.00	15.50	7.376	-0.00597	7.14335	2.0
33.4513	66.7668	-0.70	-0.27	0.00	15.50	7.376	-0.00847	7.14335	0.0
33.4713	66.7668	-0.70	-0.27	0.00	15.50	7.376	-0.01096	7.14334	0.0
33.4913	66.7668	-0.70	-0.27	0.00	15.50	7.376	-0.01345	7.14334	2.0
33.5113	66.7668	-0.70	-0.27	0.00	15.50	7.376	-0.01595	7.14333	0.0
33.5313	66.7668	-0.70	-0.27	0.00	15.50	7.376	-0.01844	7.14333	0.0
33.5513	66.7668	-0.70	-0.27	0.00	15.50	7.376	-0.02093	7.14332	0.0
33.5713	66.7668	-0.70	-0.27	0.00	15.50	7.376	-0.02343	7.14331	2.0
33.5913	66.7668	-0.70	-0.27	0.00	15.50	7.376	-0.02592	7.14331	0.0
33.6113	66.7668	-0.70	-0.27	0.00	15.50	7.376	-0.02841	7.14330	0.0
33.6313	66.7668	-0.70	-0.27	0.00	15.50	7.376	-0.03091	7.14329	0.0
33.6513	66.7668	-0.70	-0.27	0.00	15.50	7.376	-0.03340	7.14327	0.0
33.6713	66.7668	-0.70	-0.27	0.00	15.50	7.376	-0.03589	7.14326	2.0
33.6913	66.7668	-0.70	-0.27	0.00	15.50	7.376	-0.03839	7.14325	2.0
33.7113	66.7668	-0.70	-0.27	0.00	15.50	7.376	-0.04088	7.14324	2.0
33.7313	66.7668	-0.70	-0.27	0.00	15.50	7.376	-0.04337	7.14322	0.0
33.7513	66.7668	-0.70	-0.27	0.00	15.50	7.376	-0.04587	7.14320	2.0
33.7713	66.7668	-0.70	-0.27	0.00	15.50	7.376	-0.04836	7.14319	0.0
33.7913	66.7668	-0.70	-0.27	0.00	15.50	7.376	-0.05085	7.14317	0.0
33.8113	66.7668	-0.70	-0.27	0.00	15.50	7.376	-0.05335	7.14315	0.0
33.8313	66.7668	-0.70	-0.27	0.00	15.50	7.376	-0.05584	7.14313	0.0
33.8513	66.7668	-0.70	-0.27	0.00	15.50	7.376	-0.05833	7.14311	0.0
33.8713	66.7668	-0.70	-0.27	0.00	15.50	7.376	-0.06083	7.14309	0.0
33.8913	66.7668	-0.70	-0.27	0.00	15.50	7.376	-0.06332	7.14307	0.0
33.9113	66.7668	-0.70	-0.27	0.00	15.50	7.376	-0.06582	7.14305	0.0
33.9313	66.7668	-0.70	-0.27	0.00	15.50	7.376	-0.06831	7.14303	0.0
33.9513	66.7668	-0.70	-0.27	0.00	15.50	7.376	-0.07080	7.14300	0.0
33.9713	66.7668	-0.70	-0.27	0.00	15.50	7.376	-0.07330	7.14298	0.0
33.9913	66.7668	-0.70	-0.27	0.00	15.50	7.376	-0.07579	7.14295	0.0
34.0113	66.7668	-0.70	-0.27	0.00	15.50	7.376	-0.07828	7.14292	2.0
34.0313	66.7668	-0.70	-0.27	0.00	15.50	7.376	-0.08078	7.14290	0.0
34.0513	66.7668	-0.70	-0.27	0.00	15.50	7.376	-0.08327	7.14287	0.0
34.0713	66.7668	-0.70	-0.27	0.00	15.50	7.376	-0.08576	7.14284	2.0
34.0913	66.7668	-0.70	-0.27	0.00	15.50	7.376	-0.08826	7.14281	2.0
34.1113	66.7668	-0.70	-0.27	0.00	15.50	7.376	-0.09075	7.14278	0.0
34.1313	66.7668	-0.70	-0.27	0.00	15.50	7.376	-0.09324	7.14274	0.0
34.1513	66.7668	-0.70	-0.27	0.00	15.50	7.376	-0.09574	7.14271	2.0
34.1713	66.7668	-0.70	-0.27	0.00	15.50	7.376	-0.09823	7.14268	0.0
34.1913	66.7668	-0.70	-0.27	0.00	15.50	7.376	-0.10072	7.14264	0.0
34.2113	66.7668	-0.70	-0.27	0.00	15.50	7.376	-0.10321	7.14261	0.0
34.2313	66.7668	-0.70	-0.27	0.00	15.50	7.376	-0.10571	7.14257	0.0
34.2513	66.7668	-0.70	-0.27	0.00	15.50	7.376	-0.10820	7.14253	2.0
34.2713	66.7668	-0.70	-0.27	0.00	15.50	7.376	-0.11069	7.14249	4.0
34.2913	66.7668	-0.70	-0.27	0.00	15.50	7.376	-0.11319	7.14246	0.0
34.3113	66.7668	-0.70	-0.27	0.00	15.50	7.376	-0.11568	7.14242	0.0
34.3313	66.7668	-0.70	-0.27	0.00	15.50	7.376	-0.11817	7.14237	2.0
34.3513	66.7668	-0.70	-0.27	0.00	15.50	7.376	-0.12067	7.14233	2.0
34.3713	66.7668	-0.70	-0.27	0.00	15.50	7.376	-0.12316	7.14229	0.0
34.3913	66.7668	-0.70	-0.27	0.00	15.50	7.376	-0.12565	7.14225	0.0
34.4113	66.7668	-0.70	-0.27	0.00	15.50	7.376	-0.12815	7.14220	2.0
34.4313	66.7668	-0.70	-0.27	0.00	15.50	7.376	-0.13064	7.14216	0.0
34.4513	66.7668	-0.70	-0.27	0.00	15.50	7.376	-0.13313	7.14211	0.0
34.4713	66.7668	-0.70	-0.27	0.00	15.50	7.376	-0.13563	7.14206	2.0
34.4913	66.7668	-0.70	-0.27	0.00	15.50	7.376	-0.13812	7.14202	0.0
34.5113	66.7668	-0.70	-0.27	0.00	15.50	7.376	-0.14061	7.14197	2.0
34.5313	66.7668	-0.70	-0.27	0.00	15.50	7.376	-0.14310	7.14192	0.0
34.5513	66.7668	-0.70	-0.27	0.00	15.50	7.376	-0.14560	7.14187	0.0
34.5713	66.7668	-0.70	-0.27	0.00	15.50	7.376	-0.14809	7.14182	2.0
34.5913	66.7668	-0.70	-0.27	0.00	15.50	7.376	-0.15058	7.14176	0.0
34.6113	66.7668	-0.70	-0.27	0.00	15.50	7.376	-0.15308	7.14171	2.0
34.6313	66.7668	-0.70	-0.27	0.00	15.50	7.376	-0.15557	7.14166	0.0
34.6513	66.7668	-0.70	-0.27	0.00	15.50	7.376	-0.15806	7.14160	0.0
34.6713	66.7668	-0.70	-0.27	0.00	15.50	7.376	-0.16056	7.14155	0.0
34.6913	66.7668	-0.70	-0.27	0.00	15.50	7.376	-0.16305	7.14149	4.0
[...]
36.1313	69.5668	-0.70	-0.27	0.00	15.50	7.376	-0.17421	7.40402	0.0

34.1413	69.5868	-0.70	-0.27	0.00	15.50	7.376	0.08431	7.40745	0.0
34.1613	69.5868	-0.70	-0.27	0.00	15.50	7.376	0.08172	7.40748	0.0
34.1813	69.5868	-0.70	-0.27	0.00	15.50	7.376	0.07914	7.40751	2.0
34.2013	69.5868	-0.70	-0.27	0.00	15.50	7.376	0.07655	7.40754	0.0
34.2213	69.5868	-0.70	-0.27	0.00	15.50	7.376	0.07397	7.40756	2.0
34.2413	69.5868	-0.70	-0.27	0.00	15.50	7.376	0.07138	7.40759	0.0
34.2613	69.5868	-0.70	-0.27	0.00	15.50	7.376	0.06880	7.40761	2.0
34.2813	69.5868	-0.70	-0.27	0.00	15.50	7.376	0.06621	7.40764	0.0
34.3013	69.5868	-0.70	-0.27	0.00	15.50	7.376	0.06362	7.40766	0.0
34.3213	69.5868	-0.70	-0.27	0.00	15.50	7.376	0.06104	7.40768	0.0
34.3413	69.5868	-0.70	-0.27	0.00	15.50	7.376	0.05845	7.40770	0.0
34.3613	69.5868	-0.70	-0.27	0.00	15.50	7.376	0.05587	7.40772	0.0
34.3813	69.5868	-0.70	-0.27	0.00	15.50	7.376	0.05328	7.40774	4.0
34.4013	69.5868	-0.70	-0.27	0.00	15.50	7.376	0.05070	7.40776	2.0
34.4213	69.5868	-0.70	-0.27	0.00	15.50	7.376	0.04811	7.40778	6.0
34.4413	69.5868	-0.70	-0.27	0.00	15.50	7.376	0.04552	7.40779	0.0
34.4613	69.5868	-0.70	-0.27	0.00	15.50	7.376	0.04294	7.40781	0.0
34.4813	69.5868	-0.70	-0.27	0.00	15.50	7.376	0.04035	7.40782	2.0
34.5013	69.5868	-0.70	-0.27	0.00	15.50	7.376	0.03777	7.40784	0.0
34.5213	69.5868	-0.70	-0.27	0.00	15.50	7.376	0.03518	7.40785	0.0
34.5413	69.5868	-0.70	-0.27	0.00	15.50	7.376	0.03259	7.40786	0.0
34.5613	69.5868	-0.70	-0.27	0.00	15.50	7.376	0.03001	7.40787	2.0
34.5813	69.5868	-0.70	-0.27	0.00	15.50	7.376	0.02742	7.40788	2.0
34.6013	69.5868	-0.70	-0.27	0.00	15.50	7.376	0.02484	7.40789	0.0
34.6213	69.5868	-0.70	-0.27	0.00	15.50	7.376	0.02225	7.40790	0.0
34.6413	69.5868	-0.70	-0.27	0.00	15.50	7.376	0.01967	7.40791	2.0
34.6613	69.5868	-0.70	-0.27	0.00	15.50	7.376	0.01708	7.40791	0.0
34.6813	69.5868	-0.70	-0.27	0.00	15.50	7.376	0.01449	7.40792	2.0
34.7013	69.5868	-0.70	-0.27	0.00	15.50	7.376	0.01191	7.40792	4.0
34.7213	69.5868	-0.70	-0.27	0.00	15.50	7.376	0.00932	7.40793	0.0
34.7413	69.5868	-0.70	-0.27	0.00	15.50	7.376	0.00674	7.40793	0.0
34.7613	69.5868	-0.70	-0.27	0.00	15.50	7.376	0.00415	7.40793	0.0
34.7813	69.5868	-0.70	-0.27	0.00	15.50	7.376	0.00156	7.40793	0.0
34.8013	69.5868	-0.70	-0.27	0.00	15.50	7.376	-0.00102	7.40793	2.0
34.8213	69.5868	-0.70	-0.27	0.00	15.50	7.376	-0.00361	7.40793	0.0
34.8413	69.5868	-0.70	-0.27	0.00	15.50	7.376	-0.00619	7.40793	0.0
34.8613	69.5868	-0.70	-0.27	0.00	15.50	7.376	-0.00878	7.40793	2.0
34.8813	69.5868	-0.70	-0.27	0.00	15.50	7.376	-0.01136	7.40792	0.0
34.9013	69.5868	-0.70	-0.27	0.00	15.50	7.376	-0.01395	7.40792	8.0
34.9213	69.5868	-0.70	-0.27	0.00	15.50	7.376	-0.01654	7.40791	4.0
34.9413	69.5868	-0.70	-0.27	0.00	15.50	7.376	-0.01912	7.40791	0.0
34.9613	69.5868	-0.70	-0.27	0.00	15.50	7.376	-0.02171	7.40790	0.0
34.9813	69.5868	-0.70	-0.27	0.00	15.50	7.376	-0.02429	7.40789	4.0
35.0013	69.5868	-0.70	-0.27	0.00	15.50	7.376	-0.02688	7.40788	0.0
35.0213	69.5868	-0.70	-0.27	0.00	15.50	7.376	-0.02947	7.40787	4.0
35.0413	69.5868	-0.70	-0.27	0.00	15.50	7.376	-0.03205	7.40786	0.0
35.0613	69.5868	-0.70	-0.27	0.00	15.50	7.376	-0.03464	7.40785	0.0
35.0813	69.5868	-0.70	-0.27	0.00	15.50	7.376	-0.03722	7.40784	0.0
35.1013	69.5868	-0.70	-0.27	0.00	15.50	7.376	-0.03981	7.40783	2.0
35.1213	69.5868	-0.70	-0.27	0.00	15.50	7.376	-0.04239	7.40781	2.0
35.1413	69.5868	-0.70	-0.27	0.00	15.50	7.376	-0.04498	7.40780	4.0
35.1613	69.5868	-0.70	-0.27	0.00	15.50	7.376	-0.04757	7.40778	2.0
35.1813	69.5868	-0.70	-0.27	0.00	15.50	7.376	-0.05015	7.40776	6.0
35.2013	69.5868	-0.70	-0.27	0.00	15.50	7.376	-0.05274	7.40774	0.0
35.2213	69.5868	-0.70	-0.27	0.00	15.50	7.376	-0.05532	7.40773	2.0
35.2413	69.5868	-0.70	-0.27	0.00	15.50	7.376	-0.05791	7.40771	2.0
35.2613	69.5868	-0.70	-0.27	0.00	15.50	7.376	-0.06050	7.40769	0.0
35.2813	69.5868	-0.70	-0.27	0.00	15.50	7.376	-0.06308	7.40766	0.0
35.3013	69.5868	-0.70	-0.27	0.00	15.50	7.376	-0.06567	7.40764	4.0
35.3213	69.5868	-0.70	-0.27	0.00	15.50	7.376	-0.06825	7.40762	0.0
35.3413	69.5868	-0.70	-0.27	0.00	15.50	7.376	-0.07084	7.40759	0.0
35.3613	69.5868	-0.70	-0.27	0.00	15.50	7.376	-0.07342	7.40757	2.0
35.3813	69.5868	-0.70	-0.27	0.00	15.50	7.376	-0.07601	7.40754	0.0
35.4013	69.5868	-0.70	-0.27	0.00	15.50	7.376	-0.07860	7.40752	0.0
35.4213	69.5868	-0.70	-0.27	0.00	15.50	7.376	-0.08118	7.40749	2.0
35.4413	69.5868	-0.70	-0.27	0.00	15.50	7.376	-0.08377	7.40746	0.0
35.4613	69.5868	-0.70	-0.27	0.00	15.50	7.376	-0.08635	7.40743	0.0
35.4813	69.5868	-0.70	-0.27	0.00	15.50	7.376	-0.08894	7.40740	4.0
35.5013	69.5868	-0.70	-0.27	0.00	15.50	7.376	-0.09152	7.40737	0.0
35.5213	69.5868	-0.70	-0.27	0.00	15.50	7.376	-0.09411	7.40733	0.0
35.5413	69.5868	-0.70	-0.27	0.00	15.50	7.376	-0.09670	7.40730	0.0
35.5613	69.5868	-0.70	-0.27	0.00	15.50	7.376	-0.09928	7.40727	2.0
35.5813	69.5868	-0.70	-0.27	0.00	15.50	7.376	-0.10187	7.40723	2.0
35.6013	69.5868	-0.70	-0.27	0.00	15.50	7.376	-0.10445	7.40720	4.0
35.6213	69.5868	-0.70	-0.27	0.00	15.50	7.376	-0.10704	7.40716	2.0
35.6413	69.5868	-0.70	-0.27	0.00	15.50	7.376	-0.10962	7.40712	0.0
35.6613	69.5868	-0.70	-0.27	0.00	15.50	7.376	-0.11221	7.40708	0.0
35.6813	69.5868	-0.70	-0.27	0.00	15.50	7.376	-0.11479	7.40704	0.0
35.7013	69.5868	-0.70	-0.27	0.00	15.50	7.376	-0.11738	7.40700	0.0
35.7213	69.5868	-0.70	-0.27	0.00	15.50	7.376	-0.11997	7.40696	2.0
35.7413	69.5868	-0.70	-0.27	0.00	15.50	7.376	-0.12255	7.40692	2.0
35.7613	69.5868	-0.70	-0.27	0.00	15.50	7.376	-0.12514	7.40688	0.0
35.7813	69.5868	-0.70	-0.27	0.00	15.50	7.376	-0.12772	7.40683	0.0
35.8013	69.5868	-0.70	-0.27	0.00	15.50	7.376	-0.13031	7.40679	2.0
35.8213	69.5868	-0.70	-0.27	0.00	15.50	7.376	-0.13289	7.40674	0.0
35.8413	69.5868	-0.70	-0.27	0.00	15.50	7.376	-0.13548	7.40669	0.0
35.8613	69.5868	-0.70	-0.27	0.00	15.50	7.376	-0.13806	7.40665	0.0
35.8813	69.5868	-0.70	-0.27	0.00	15.50	7.376	-0.14065	7.40660	6.0
35.9013	69.5868	-0.70	-0.27	0.00	15.50	7.376	-0.14323	7.40655	2.0
35.9213	69.5868	-0.70	-0.27	0.00	15.50	7.376	-0.14582	7.40650	0.0
35.9413	69.5868	-0.70	-0.27	0.00	15.50	7.376	-0.14841	7.40645	0.0
35.9613	69.5868	-0.70	-0.27	0.00	15.50	7.376	-0.15099	7.40639	0.0
35.9813	69.5868	-0.70	-0.27	0.00	15.50	7.376	-0.15358	7.40634	2.0
36.0013	69.5868	-0.70	-0.27	0.00	15.50	7.376	-0.15616	7.40629	4.0
36.0213	69.5868	-0.70	-0.27	0.00	15.50	7.376	-0.15875	7.40623	0.0
36.0413	69.5868	-0.70	-0.27	0.00	15.50	7.376	-0.16133	7.40618	0.0
36.0613	69.5868	-0.70	-0.27	0.00	15.50	7.376	-0.16392	7.40612	0.0
36.0813	69.5868	-0.70	-0.27	0.00	15.50	7.376	-0.16650	7.40606	0.0
36.1013	69.5868	-0.70	-0.27	0.00	15.50	7.376	-0.16909	7.40600	0.0
36.1213	69.5868	-0.70	-0.27	0.00	15.50	7.376	-0.17167	7.40594	0.0
36.1413	69.5868	-0.70	-0.27	0.00	15.50	7.376	-0.17426	7.40588	0.0

34.1513	69.6068	-0.70	-0.27	0.00	15.50	7.376	0.08433	7.40931	2.0
34.1713	69.6068	-0.70	-0.27	0.00	15.50	7.376	0.08174	7.40934	0.0
34.1913	69.6068	-0.70	-0.27	0.00	15.50	7.376	0.07916	7.40937	4.0
34.2113	69.6068	-0.70	-0.27	0.00	15.50	7.376	0.07657	7.40940	0.0
34.2313	69.6068	-0.70	-0.27	0.00	15.50	7.376	0.07399	7.40942	0.0
34.2513	69.6068	-0.70	-0.27	0.00	15.50	7.376	0.07140	7.40945	0.0
34.2713	69.6068	-0.70	-0.27	0.00	15.50	7.376	0.06881	7.40947	0.0
34.2913	69.6068	-0.70	-0.27	0.00	15.50	7.376	0.06623	7.40950	0.0
34.3113	69.6068	-0.70	-0.27	0.00	15.50	7.376	0.06364	7.40952	0.0
34.3313	69.6068	-0.70	-0.27	0.00	15.50	7.376	0.06105	7.40954	2.0
34.3513	69.6068	-0.70	-0.27	0.00	15.50	7.376	0.05847	7.40956	2.0
34.3713	69.6068	-0.70	-0.27	0.00	15.50	7.376	0.05588	7.40958	0.0
34.3913	69.6068	-0.70	-0.27	0.00	15.50	7.376	0.05329	7.40960	2.0
34.4113	69.6068	-0.70	-0.27	0.00	15.50	7.376	0.05071	7.40962	0.0
34.4313	69.6068	-0.70	-0.27	0.00	15.50	7.376	0.04812	7.40964	4.0
34.4513	69.6068	-0.70	-0.27	0.00	15.50	7.376	0.04554	7.40965	0.0
34.4713	69.6068	-0.70	-0.27	0.00	15.50	7.376	0.04295	7.40967	2.0
34.4913	69.6068	-0.70	-0.27	0.00	15.50	7.376	0.04036	7.40968	0.0
34.5113	69.6068	-0.70	-0.27	0.00	15.50	7.376	0.03778	7.40970	2.0
34.5313	69.6068	-0.70	-0.27	0.00	15.50	7.376	0.03519	7.40971	0.0
34.5513	69.6068	-0.70	-0.27	0.00	15.50	7.376	0.03260	7.40972	0.0
34.5713	69.6068	-0.70	-0.27	0.00	15.50	7.376	0.03002	7.40973	2.0
34.5913	69.6068	-0.70	-0.27	0.00	15.50	7.376	0.02743	7.40974	0.0
34.6113	69.6068	-0.70	-0.27	0.00	15.50	7.376	0.02484	7.40975	0.0
34.6313	69.6068	-0.70	-0.27	0.00	15.50	7.376	0.02226	7.40976	2.0
34.6513	69.6068	-0.70	-0.27	0.00	15.50	7.376	0.01967	7.40977	0.0
34.6713	69.6068	-0.70	-0.27	0.00	15.50	7.376	0.01708	7.40977	2.0
34.6913	69.6068	-0.70	-0.27	0.00	15.50	7.376	0.01450	7.40978	2.0
34.7113	69.6068	-0.70	-0.27	0.00	15.50	7.376	0.01191	7.40978	2.0
34.7313	69.6068	-0.70	-0.27	0.00	15.50	7.376	0.00932	7.40979	2.0
34.7513	69.6068	-0.70	-0.27	0.00	15.50	7.376	0.00674	7.40979	4.0
34.7713	69.6068	-0.70	-0.27	0.00	15.50	7.376	0.00415	7.40979	2.0
34.7913	69.6068	-0.70	-0.27	0.00	15.50	7.376	0.00156	7.40979	4.0
34.8113	69.6068	-0.70	-0.27	0.00	15.50	7.376	-0.00102	7.40979	0.0
34.8313	69.6068	-0.70	-0.27	0.00	15.50	7.376	-0.00361	7.40979	0.0
34.8513	69.6068	-0.70	-0.27	0.00	15.50	7.376	-0.00619	7.40979	0.0
34.8713	69.6068	-0.70	-0.27	0.00	15.50	7.376	-0.00878	7.40979	0.0
34.8913	69.6068	-0.70	-0.27	0.00	15.50	7.376	-0.01137	7.40978	0.0
34.9113	69.6068	-0.70	-0.27	0.00	15.50	7.376	-0.01395	7.40978	4.0
34.9313	69.6068	-0.70	-0.27	0.00	15.50	7.376	-0.01654	7.40977	2.0
34.9513	69.6068	-0.70	-0.27	0.00	15.50	7.376	-0.01913	7.40977	0.0
34.9713	69.6068	-0.70	-0.27	0.00	15.50	7.376	-0.02171	7.40976	0.0
34.9913	69.6068	-0.70	-0.27	0.00	15.50	7.376	-0.02430	7.40975	0.0
35.0113	69.6068	-0.70	-0.27	0.00	15.50	7.376	-0.02689	7.40974	0.0
35.0313	69.6068	-0.70	-0.27	0.00	15.50	7.376	-0.02947	7.40973	2.0
35.0513	69.6068	-0.70	-0.27	0.00	15.50	7.376	-0.03206	7.40972	2.0
35.0713	69.6068	-0.70	-0.27	0.00	15.50	7.376	-0.03465	7.40971	2.0
35.0913	69.6068	-0.70	-0.27	0.00	15.50	7.376	-0.03723	7.40970	2.0
35.1113	69.6068	-0.70	-0.27	0.00	15.50	7.376	-0.03982	7.40969	8.0
35.1313	69.6068	-0.70	-0.27	0.00	15.50	7.376	-0.04241	7.40967	2.0
35.1513	69.6068	-0.70	-0.27	0.00	15.50	7.376	-0.04499	7.40966	2.0
35.1713	69.6068	-0.70	-0.27	0.00	15.50	7.376	-0.04758	7.40964	0.0
35.1913	69.6068	-0.70	-0.27	0.00	15.50	7.376	-0.05016	7.40962	2.0
35.2113	69.6068	-0.70	-0.27	0.00	15.50	7.376	-0.05275	7.40961	6.0
35.2313	69.6068	-0.70	-0.27	0.00	15.50	7.376	-0.05534	7.40959	0.0
35.2513	69.6068	-0.70	-0.27	0.00	15.50	7.376	-0.05792	7.40957	0.0
35.2713	69.6068	-0.70	-0.27	0.00	15.50	7.376	-0.06051	7.40955	0.0
35.2913	69.6068	-0.70	-0.27	0.00	15.50	7.376	-0.06310	7.40952	0.0
35.3113	69.6068	-0.70	-0.27	0.00	15.50	7.376	-0.06568	7.40950	4.0
35.3313	69.6068	-0.70	-0.27	0.00	15.50	7.376	-0.06827	7.40948	0.0
35.3513	69.6068	-0.70	-0.27	0.00	15.50	7.376	-0.07086	7.40945	2.0
35.3713	69.6068	-0.70	-0.27	0.00	15.50	7.376	-0.07344	7.40943	0.0
35.3913	69.6068	-0.70	-0.27	0.00	15.50	7.376	-0.07603	7.40940	0.0
35.4113	69.6068	-0.70	-0.27	0.00	15.50	7.376	-0.07862	7.40938	0.0
35.4313	69.6068	-0.70	-0.27	0.00	15.50	7.376	-0.08120	7.40935	2.0
35.4513	69.6068	-0.70	-0.27	0.00	15.50	7.376	-0.08379	7.40932	0.0
35.4713	69.6068	-0.70	-0.27	0.00	15.50	7.376	-0.08637	7.40929	4.0
35.4913	69.6068	-0.70	-0.27	0.00	15.50	7.376	-0.08896	7.40926	0.0
35.5113	69.6068	-0.70	-0.27	0.00	15.50	7.376	-0.09155	7.40923	0.0
35.5313	69.6068	-0.70	-0.27	0.00	15.50	7.376	-0.09413	7.40920	4.0
35.5513	69.6068	-0.70	-0.27	0.00	15.50	7.376	-0.09672	7.40916	2.0
35.5713	69.6068	-0.70	-0.27	0.00	15.50	7.376	-0.09931	7.40913	2.0
35.5913	69.6068	-0.70	-0.27	0.00	15.50	7.376	-0.10189	7.40909	0.0
35.6113	69.6068	-0.70	-0.27	0.00	15.50	7.376	-0.10448	7.40906	0.0
35.6313	69.6068	-0.70	-0.27	0.00	15.50	7.376	-0.10706	7.40902	2.0
35.6513	69.6068	-0.70	-0.27	0.00	15.50	7.376	-0.10965	7.40898	0.0
35.6713	69.6068	-0.70	-0.27	0.00	15.50	7.376	-0.11224	7.40894	0.0
35.6913	69.6068	-0.70	-0.27	0.00	15.50	7.376	-0.11482	7.40890	4.0
35.7113	69.6068	-0.70	-0.27	0.00	15.50	7.376	-0.11741	7.40886	0.0
35.7313	69.6068	-0.70	-0.27	0.00	15.50	7.376	-0.12000	7.40882	0.0
35.7513	69.6068	-0.70	-0.27	0.00	15.50	7.376	-0.12258	7.40878	4.0
35.7713	69.6068	-0.70	-0.27	0.00	15.50	7.376	-0.12517	7.40874	0.0
35.7913	69.6068	-0.70	-0.27	0.00	15.50	7.376	-0.12775	7.40869	0.0
35.8113	69.6068	-0.70	-0.27	0.00	15.50	7.376	-0.13034	7.40865	0.0
35.8313	69.6068	-0.70	-0.27	0.00	15.50	7.376	-0.13293	7.40860	2.0
35.8513	69.6068	-0.70	-0.27	0.00	15.50	7.376	-0.13551	7.40855	4.0
35.8713	69.6068	-0.70	-0.27	0.00	15.50	7.376	-0.13810	7.40851	2.0
35.8913	69.6068	-0.70	-0.27	0.00	15.50	7.376	-0.14068	7.40846	0.0
35.9113	69.6068	-0.70	-0.27	0.00	15.50	7.376	-0.14327	7.40841	2.0
35.9313	69.6068	-0.70	-0.27	0.00	15.50	7.376	-0.14586	7.40836	2.0
35.9513	69.6068	-0.70	-0.27	0.00	15.50	7.376	-0.14844	7.40831	0.0
35.9713	69.6068	-0.70	-0.27	0.00	15.50	7.376	-0.15103	7.40825	2.0
35.9913	69.6068	-0.70	-0.27	0.00	15.50	7.376	-0.15361	7.40820	0.0
36.0113	69.6068	-0.70	-0.27	0.00	15.50	7.376	-0.15620	7.40815	2.0
36.0313	69.6068	-0.70	-0.27	0.00	15.50	7.376	-0.15879	7.40809	2.0
36.0513	69.6068	-0.70	-0.27	0.00	15.50	7.376	-0.16137	7.40804	2.0
36.0713	69.6068	-0.70	-0.27	0.00	15.50	7.376	-0.16396	7.40798	0.0
36.0913	69.6068	-0.70	-0.27	0.00	15.50	7.376	-0.16654	7.40792	2.0
36.1113	69.6068	-0.70	-0.27	0.00	15.50	7.376	-0.16913	7.40786	0.0
36.1313	69.6068	-0.70	-0.27	0.00	15.50	7.376	-0.17172	7.40780	2.0
36.1513	69.6068	-0.70	-0.27	0.00	15.50	7.376	-0.17430	7.40774	0.0

34.1613	69.6268	-0.70	-0.27	0.00	15.50	7.376	0.08435	7.41117	0.0
34.1813	69.6268	-0.70	-0.27	0.00	15.50	7.376	0.08177	7.41120	0.0
34.2013	69.6268	-0.70	-0.27	0.00	15.50	7.376	0.07918	7.41123	0.0
34.2213	69.6268	-0.70	-0.27	0.00	15.50	7.376	0.07659	7.41126	0.0
34.2413	69.6268	-0.70	-0.27	0.00	15.50	7.376	0.07400	7.41128	2.0
34.2613	69.6268	-0.70	-0.27	0.00	15.50	7.376	0.07142	7.41131	0.0
34.2813	69.6268	-0.70	-0.27	0.00	15.50	7.376	0.06883	7.41133	0.0
34.3013	69.6268	-0.70	-0.27	0.00	15.50	7.376	0.06624	7.41136	2.0
34.3213	69.6268	-0.70	-0.27	0.00	15.50	7.376	0.06366	7.41138	0.0
34.3413	69.6268	-0.70	-0.27	0.00	15.50	7.376	0.06107	7.41140	0.0
34.3613	69.6268	-0.70	-0.27	0.00	15.50	7.376	0.05848	7.41142	0.0
34.3813	69.6268	-0.70	-0.27	0.00	15.50	7.376	0.05589	7.41144	0.0
34.4013	69.6268	-0.70	-0.27	0.00	15.50	7.376	0.05331	7.41146	0.0
34.4213	69.6268	-0.70	-0.27	0.00	15.50	7.376	0.05072	7.41148	2.0
34.4413	69.6268	-0.70	-0.27	0.00	15.50	7.376	0.04813	7.41150	0.0
34.4613	69.6268	-0.70	-0.27	0.00	15.50	7.376	0.04555	7.41151	4.0
34.4813	69.6268	-0.70	-0.27	0.00	15.50	7.376	0.04296	7.41153	2.0
34.5013	69.6268	-0.70	-0.27	0.00	15.50	7.376	0.04037	7.41154	0.0
34.5213	69.6268	-0.70	-0.27	0.00	15.50	7.376	0.03779	7.41156	0.0
34.5413	69.6268	-0.70	-0.27	0.00	15.50	7.376	0.03520	7.41157	0.0
34.5613	69.6268	-0.70	-0.27	0.00	15.50	7.376	0.03261	7.41158	0.0
34.5813	69.6268	-0.70	-0.27	0.00	15.50	7.376	0.03002	7.41159	2.0
34.6013	69.6268	-0.70	-0.27	0.00	15.50	7.376	0.02744	7.41160	2.0
34.6213	69.6268	-0.70	-0.27	0.00	15.50	7.376	0.02485	7.41161	2.0
34.6413	69.6268	-0.70	-0.27	0.00	15.50	7.376	0.02226	7.41162	0.0
34.6613	69.6268	-0.70	-0.27	0.00	15.50	7.376	0.01968	7.41163	0.0
34.6813	69.6268	-0.70	-0.27	0.00	15.50	7.376	0.01709	7.41163	4.0
34.7013	69.6268	-0.70	-0.27	0.00	15.50	7.376	0.01450	7.41164	2.0
34.7213	69.6268	-0.70	-0.27	0.00	15.50	7.376	0.01191	7.41164	0.0
34.7413	69.6268	-0.70	-0.27	0.00	15.50	7.376	0.00933	7.41165	0.0
34.7613	69.6268	-0.70	-0.27	0.00	15.50	7.376	0.00674	7.41165	0.0
34.7813	69.6268	-0.70	-0.27	0.00	15.50	7.376	0.00415	7.41165	0.0
34.8013	69.6268	-0.70	-0.27	0.00	15.50	7.376	0.00157	7.41165	2.0
34.8213	69.6268	-0.70	-0.27	0.00	15.50	7.376	-0.00102	7.41165	0.0
34.8413	69.6268	-0.70	-0.27	0.00	15.50	7.376	-0.00361	7.41165	2.0
34.8613	69.6268	-0.70	-0.27	0.00	15.50	7.376	-0.00620	7.41165	0.0
34.8813	69.6268	-0.70	-0.27	0.00	15.50	7.376	-0.00878	7.41165	0.0
34.9013	69.6268	-0.70	-0.27	0.00	15.50	7.376	-0.01137	7.41164	2.0
34.9213	69.6268	-0.70	-0.27	0.00	15.50	7.376	-0.01396	7.41164	6.0
34.9413	69.6268	-0.70	-0.27	0.00	15.50	7.376	-0.01654	7.41164	0.0
34.9613	69.6268	-0.70	-0.27	0.00	15.50	7.376	-0.01913	7.41163	0.0
34.9813	69.6268	-0.70	-0.27	0.00	15.50	7.376	-0.02172	7.41162	0.0
35.0013	69.6268	-0.70	-0.27	0.00	15.50	7.376	-0.02431	7.41161	2.0
35.0213	69.6268	-0.70	-0.27	0.00	15.50	7.376	-0.02689	7.41160	0.0
35.0413	69.6268	-0.70	-0.27	0.00	15.50	7.376	-0.02948	7.41160	2.0
35.0613	69.6268	-0.70	-0.27	0.00	15.50	7.376	-0.03207	7.41158	0.0
35.0813	69.6268	-0.70	-0.27	0.00	15.50	7.376	-0.03465	7.41157	8.0
35.1013	69.6268	-0.70	-0.27	0.00	15.50	7.376	-0.03724	7.41156	2.0
35.1213	69.6268	-0.70	-0.27	0.00	15.50	7.376	-0.03983	7.41155	0.0
35.1413	69.6268	-0.70	-0.27	0.00	15.50	7.376	-0.04242	7.41153	2.0
35.1613	69.6268	-0.70	-0.27	0.00	15.50	7.376	-0.04500	7.41152	2.0
35.1813	69.6268	-0.70	-0.27	0.00	15.50	7.376	-0.04759	7.41150	0.0
35.2013	69.6268	-0.70	-0.27	0.00	15.50	7.376	-0.05018	7.41148	0.0
35.2213	69.6268	-0.70	-0.27	0.00	15.50	7.376	-0.05276	7.41147	0.0
35.2413	69.6268	-0.70	-0.27	0.00	15.50	7.376	-0.05535	7.41145	2.0
35.2613	69.6268	-0.70	-0.27	0.00	15.50	7.376	-0.05794	7.41143	0.0
35.2813	69.6268	-0.70	-0.27	0.00	15.50	7.376	-0.06053	7.41141	2.0
35.3013	69.6268	-0.70	-0.27	0.00	15.50	7.376	-0.06311	7.41138	2.0
35.3213	69.6268	-0.70	-0.27	0.00	15.50	7.376	-0.06570	7.41136	0.0
35.3413	69.6268	-0.70	-0.27	0.00	15.50	7.376	-0.06829	7.41134	2.0
35.3613	69.6268	-0.70	-0.27	0.00	15.50	7.376	-0.07087	7.41131	0.0
35.3813	69.6268	-0.70	-0.27	0.00	15.50	7.376	-0.07346	7.41129	4.0
35.4013	69.6268	-0.70	-0.27	0.00	15.50	7.376	-0.07605	7.41126	0.0
35.4213	69.6268	-0.70	-0.27	0.00	15.50	7.376	-0.07864	7.41124	2.0
35.4413	69.6268	-0.70	-0.27	0.00	15.50	7.376	-0.08122	7.41121	0.0
35.4613	69.6268	-0.70	-0.27	0.00	15.50	7.376	-0.08381	7.41118	0.0
35.4813	69.6268	-0.70	-0.27	0.00	15.50	7.376	-0.08640	7.41115	0.0
35.5013	69.6268	-0.70	-0.27	0.00	15.50	7.376	-0.08898	7.41112	2.0
35.5213	69.6268	-0.70	-0.27	0.00	15.50	7.376	-0.09157	7.41109	2.0
35.5413	69.6268	-0.70	-0.27	0.00	15.50	7.376	-0.09416	7.41106	2.0
35.5613	69.6268	-0.70	-0.27	0.00	15.50	7.376	-0.09674	7.41102	0.0
35.5813	69.6268	-0.70	-0.27	0.00	15.50	7.376	-0.09933	7.41099	0.0
35.6013	69.6268	-0.70	-0.27	0.00	15.50	7.376	-0.10192	7.41095	4.0
35.6213	69.6268	-0.70	-0.27	0.00	15.50	7.376	-0.10450	7.41092	2.0
35.6413	69.6268	-0.70	-0.27	0.00	15.50	7.376	-0.10709	7.41088	4.0
35.6613	69.6268	-0.70	-0.27	0.00	15.50	7.376	-0.10968	7.41084	0.0
35.6813	69.6268	-0.70	-0.27	0.00	15.50	7.376	-0.11227	7.41080	6.0
35.7013	69.6268	-0.70	-0.27	0.00	15.50	7.376	-0.11485	7.41076	2.0
35.7213	69.6268	-0.70	-0.27	0.00	15.50	7.376	-0.11744	7.41072	0.0
35.7413	69.6268	-0.70	-0.27	0.00	15.50	7.376	-0.12003	7.41068	0.0
35.7613	69.6268	-0.70	-0.27	0.00	15.50	7.376	-0.12261	7.41064	0.0
35.7813	69.6268	-0.70	-0.27	0.00	15.50	7.376	-0.12520	7.41060	0.0
35.8013	69.6268	-0.70	-0.27	0.00	15.50	7.376	-0.12779	7.41055	0.0
35.8213	69.6268	-0.70	-0.27	0.00	15.50	7.376	-0.13037	7.41051	0.0
35.8413	69.6268	-0.70	-0.27	0.00	15.50	7.376	-0.13296	7.41046	0.0
35.8613	69.6268	-0.70	-0.27	0.00	15.50	7.376	-0.13555	7.41041	2.0
35.8813	69.6268	-0.70	-0.27	0.00	15.50	7.376	-0.13813	7.41037	0.0
35.9013	69.6268	-0.70	-0.27	0.00	15.50	7.376	-0.14072	7.41032	0.0
35.9213	69.6268	-0.70	-0.27	0.00	15.50	7.376	-0.14331	7.41027	0.0
35.9413	69.6268	-0.70	-0.27	0.00	15.50	7.376	-0.14589	7.41022	0.0
35.9613	69.6268	-0.70	-0.27	0.00	15.50	7.376	-0.14848	7.41017	0.0
35.9813	69.6268	-0.70	-0.27	0.00	15.50	7.376	-0.15107	7.41011	0.0
36.0013	69.6268	-0.70	-0.27	0.00	15.50	7.376	-0.15365	7.41006	0.0
36.0213	69.6268	-0.70	-0.27	0.00	15.50	7.376	-0.15624	7.41001	0.0
36.0413	69.6268	-0.70	-0.27	0.00	15.50	7.376	-0.15883	7.40995	2.0
36.0613	69.6268	-0.70	-0.27	0.00	15.50	7.376	-0.16141	7.40990	0.0
36.0813	69.6268	-0.70	-0.27	0.00	15.50	7.376	-0.16400	7.40984	2.0
36.1013	69.6268	-0.70	-0.27	0.00	15.50	7.376	-0.16659	7.40978	2.0
36.1213	69.6268	-0.70	-0.27	0.00	15.50	7.376	-0.16917	7.40972	6.0
36.1413	69.6268	-0.70	-0.27	0.00	15.50	7.376	-0.17176	7.40966	0.0
36.1613	69.6268	-0.70	-0.27	0.00	15.50	7.376	-0.17435	7.40960	0.0