File: Data/Omega/1.5deg-2.0deg-rsm-2h30mins_11358-as-grown_004_w-scans.dat
# filename: 1.5deg-2.0deg-rsm-2h30mins_11358-as-grown_004.dat
# reflection: (004)
# type: rotated into a series of omega scans
# x-axis: Omega_2Theta
#
# Omega	2Theta	Phi  	Chi   	X    	Y    	Z    	q_para	q_perp	Intensity
# [deg]	[deg] 	[deg]	[deg] 	[mm] 	[mm] 	[mm] 	[nm-1]	[nm-1]	[counts/s]
32.1494	66.6696	2.82	-0.23	10.00	-20.00	7.326	0.14759	7.13263	0.0
32.1694	66.6696	2.82	-0.23	10.00	-20.00	7.326	0.14510	7.13268	4.0
32.1894	66.6696	2.82	-0.23	10.00	-20.00	7.326	0.14261	7.13273	0.0
32.2094	66.6696	2.82	-0.23	10.00	-20.00	7.326	0.14012	7.13278	2.0
32.2294	66.6696	2.82	-0.23	10.00	-20.00	7.326	0.13763	7.13283	0.0
32.2494	66.6696	2.82	-0.23	10.00	-20.00	7.326	0.13514	7.13287	0.0
32.2694	66.6696	2.82	-0.23	10.00	-20.00	7.326	0.13265	7.13292	2.0
32.2894	66.6696	2.82	-0.23	10.00	-20.00	7.326	0.13016	7.13297	0.0
32.3094	66.6696	2.82	-0.23	10.00	-20.00	7.326	0.12767	7.13301	0.0
32.3294	66.6696	2.82	-0.23	10.00	-20.00	7.326	0.12518	7.13306	2.0
32.3494	66.6696	2.82	-0.23	10.00	-20.00	7.326	0.12269	7.13310	0.0
32.3694	66.6696	2.82	-0.23	10.00	-20.00	7.326	0.12020	7.13314	0.0
32.3894	66.6696	2.82	-0.23	10.00	-20.00	7.326	0.11771	7.13318	0.0
32.4094	66.6696	2.82	-0.23	10.00	-20.00	7.326	0.11522	7.13322	0.0
32.4294	66.6696	2.82	-0.23	10.00	-20.00	7.326	0.11273	7.13326	0.0
32.4494	66.6696	2.82	-0.23	10.00	-20.00	7.326	0.11024	7.13330	0.0
32.4694	66.6696	2.82	-0.23	10.00	-20.00	7.326	0.10775	7.13334	0.0
32.4894	66.6696	2.82	-0.23	10.00	-20.00	7.326	0.10526	7.13338	0.0
32.5094	66.6696	2.82	-0.23	10.00	-20.00	7.326	0.10277	7.13341	0.0
32.5294	66.6696	2.82	-0.23	10.00	-20.00	7.326	0.10028	7.13345	2.0
32.5494	66.6696	2.82	-0.23	10.00	-20.00	7.326	0.09779	7.13348	0.0
32.5694	66.6696	2.82	-0.23	10.00	-20.00	7.326	0.09530	7.13352	0.0
32.5894	66.6696	2.82	-0.23	10.00	-20.00	7.326	0.09281	7.13355	2.0
32.6094	66.6696	2.82	-0.23	10.00	-20.00	7.326	0.09032	7.13358	2.0
32.6294	66.6696	2.82	-0.23	10.00	-20.00	7.326	0.08783	7.13361	0.0
32.6494	66.6696	2.82	-0.23	10.00	-20.00	7.326	0.08534	7.13364	0.0
32.6694	66.6696	2.82	-0.23	10.00	-20.00	7.326	0.08285	7.13367	2.0
32.6894	66.6696	2.82	-0.23	10.00	-20.00	7.326	0.08036	7.13370	0.0
32.7094	66.6696	2.82	-0.23	10.00	-20.00	7.326	0.07787	7.13373	0.0
32.7294	66.6696	2.82	-0.23	10.00	-20.00	7.326	0.07538	7.13376	0.0
32.7494	66.6696	2.82	-0.23	10.00	-20.00	7.326	0.07289	7.13378	2.0
32.7694	66.6696	2.82	-0.23	10.00	-20.00	7.326	0.07040	7.13381	2.0
32.7894	66.6696	2.82	-0.23	10.00	-20.00	7.326	0.06791	7.13383	4.0
32.8094	66.6696	2.82	-0.23	10.00	-20.00	7.326	0.06542	7.13385	4.0
32.8294	66.6696	2.82	-0.23	10.00	-20.00	7.326	0.06293	7.13388	0.0
32.8494	66.6696	2.82	-0.23	10.00	-20.00	7.326	0.06044	7.13390	0.0
32.8694	66.6696	2.82	-0.23	10.00	-20.00	7.326	0.05795	7.13392	2.0
32.8894	66.6696	2.82	-0.23	10.00	-20.00	7.326	0.05546	7.13394	0.0
32.9094	66.6696	2.82	-0.23	10.00	-20.00	7.326	0.05297	7.13396	0.0
32.9294	66.6696	2.82	-0.23	10.00	-20.00	7.326	0.05048	7.13398	0.0
32.9494	66.6696	2.82	-0.23	10.00	-20.00	7.326	0.04799	7.13399	0.0
32.9694	66.6696	2.82	-0.23	10.00	-20.00	7.326	0.04550	7.13401	0.0
32.9894	66.6696	2.82	-0.23	10.00	-20.00	7.326	0.04301	7.13402	2.0
33.0094	66.6696	2.82	-0.23	10.00	-20.00	7.326	0.04052	7.13404	0.0
33.0294	66.6696	2.82	-0.23	10.00	-20.00	7.326	0.03803	7.13405	0.0
33.0494	66.6696	2.82	-0.23	10.00	-20.00	7.326	0.03554	7.13407	2.0
33.0694	66.6696	2.82	-0.23	10.00	-20.00	7.326	0.03305	7.13408	2.0
33.0894	66.6696	2.82	-0.23	10.00	-20.00	7.326	0.03056	7.13409	4.0
33.1094	66.6696	2.82	-0.23	10.00	-20.00	7.326	0.02807	7.13410	0.0
33.1294	66.6696	2.82	-0.23	10.00	-20.00	7.326	0.02558	7.13411	2.0
33.1494	66.6696	2.82	-0.23	10.00	-20.00	7.326	0.02308	7.13412	0.0
33.1694	66.6696	2.82	-0.23	10.00	-20.00	7.326	0.02059	7.13412	0.0
33.1894	66.6696	2.82	-0.23	10.00	-20.00	7.326	0.01810	7.13413	4.0
33.2094	66.6696	2.82	-0.23	10.00	-20.00	7.326	0.01561	7.13414	0.0
33.2294	66.6696	2.82	-0.23	10.00	-20.00	7.326	0.01312	7.13414	0.0
33.2494	66.6696	2.82	-0.23	10.00	-20.00	7.326	0.01063	7.13415	0.0
33.2694	66.6696	2.82	-0.23	10.00	-20.00	7.326	0.00814	7.13415	4.0
33.2894	66.6696	2.82	-0.23	10.00	-20.00	7.326	0.00565	7.13415	0.0
33.3094	66.6696	2.82	-0.23	10.00	-20.00	7.326	0.00316	7.13415	0.0
33.3294	66.6696	2.82	-0.23	10.00	-20.00	7.326	0.00067	7.13415	2.0
33.3494	66.6696	2.82	-0.23	10.00	-20.00	7.326	-0.00182	7.13415	2.0
33.3694	66.6696	2.82	-0.23	10.00	-20.00	7.326	-0.00431	7.13415	0.0
33.3894	66.6696	2.82	-0.23	10.00	-20.00	7.326	-0.00680	7.13415	6.0
33.4094	66.6696	2.82	-0.23	10.00	-20.00	7.326	-0.00929	7.13415	0.0
33.4294	66.6696	2.82	-0.23	10.00	-20.00	7.326	-0.01178	7.13414	2.0
33.4494	66.6696	2.82	-0.23	10.00	-20.00	7.326	-0.01427	7.13414	0.0
33.4694	66.6696	2.82	-0.23	10.00	-20.00	7.326	-0.01676	7.13413	0.0
33.4894	66.6696	2.82	-0.23	10.00	-20.00	7.326	-0.01925	7.13413	4.0
33.5094	66.6696	2.82	-0.23	10.00	-20.00	7.326	-0.02174	7.13412	2.0
33.5294	66.6696	2.82	-0.23	10.00	-20.00	7.326	-0.02423	7.13411	0.0
33.5494	66.6696	2.82	-0.23	10.00	-20.00	7.326	-0.02672	7.13410	4.0
33.5694	66.6696	2.82	-0.23	10.00	-20.00	7.326	-0.02921	7.13409	0.0
33.5894	66.6696	2.82	-0.23	10.00	-20.00	7.326	-0.03170	7.13408	2.0
33.6094	66.6696	2.82	-0.23	10.00	-20.00	7.326	-0.03419	7.13407	0.0
33.6294	66.6696	2.82	-0.23	10.00	-20.00	7.326	-0.03668	7.13406	2.0
33.6494	66.6696	2.82	-0.23	10.00	-20.00	7.326	-0.03917	7.13405	0.0
33.6694	66.6696	2.82	-0.23	10.00	-20.00	7.326	-0.04166	7.13403	2.0
33.6894	66.6696	2.82	-0.23	10.00	-20.00	7.326	-0.04415	7.13402	0.0
33.7094	66.6696	2.82	-0.23	10.00	-20.00	7.326	-0.04664	7.13400	4.0
33.7294	66.6696	2.82	-0.23	10.00	-20.00	7.326	-0.04913	7.13399	2.0
33.7494	66.6696	2.82	-0.23	10.00	-20.00	7.326	-0.05162	7.13397	0.0
33.7694	66.6696	2.82	-0.23	10.00	-20.00	7.326	-0.05411	7.13395	2.0
33.7894	66.6696	2.82	-0.23	10.00	-20.00	7.326	-0.05660	7.13393	4.0
33.8094	66.6696	2.82	-0.23	10.00	-20.00	7.326	-0.05909	7.13391	4.0
33.8294	66.6696	2.82	-0.23	10.00	-20.00	7.326	-0.06158	7.13389	0.0
33.8494	66.6696	2.82	-0.23	10.00	-20.00	7.326	-0.06407	7.13387	0.0
33.8694	66.6696	2.82	-0.23	10.00	-20.00	7.326	-0.06656	7.13384	2.0
33.8894	66.6696	2.82	-0.23	10.00	-20.00	7.326	-0.06905	7.13382	4.0
33.9094	66.6696	2.82	-0.23	10.00	-20.00	7.326	-0.07154	7.13380	0.0
33.9294	66.6696	2.82	-0.23	10.00	-20.00	7.326	-0.07403	7.13377	0.0
33.9494	66.6696	2.82	-0.23	10.00	-20.00	7.326	-0.07653	7.13374	0.0
33.9694	66.6696	2.82	-0.23	10.00	-20.00	7.326	-0.07902	7.13372	0.0
33.9894	66.6696	2.82	-0.23	10.00	-20.00	7.326	-0.08151	7.13369	0.0
34.0094	66.6696	2.82	-0.23	10.00	-20.00	7.326	-0.08400	7.13366	0.0
34.0294	66.6696	2.82	-0.23	10.00	-20.00	7.326	-0.08649	7.13363	0.0
34.0494	66.6696	2.82	-0.23	10.00	-20.00	7.326	-0.08898	7.13360	2.0
34.0694	66.6696	2.82	-0.23	10.00	-20.00	7.326	-0.09147	7.13357	0.0
34.0894	66.6696	2.82	-0.23	10.00	-20.00	7.326	-0.09396	7.13354	0.0
34.1094	66.6696	2.82	-0.23	10.00	-20.00	7.326	-0.09645	7.13350	0.0
34.1294	66.6696	2.82	-0.23	10.00	-20.00	7.326	-0.09894	7.13347	2.0
34.1494	66.6696	2.82	-0.23	10.00	-20.00	7.326	-0.10143	7.13343	0.0

32.1594	66.6896	2.82	-0.23	10.00	-20.00	7.326	0.14763	7.13452	0.0
32.1794	66.6896	2.82	-0.23	10.00	-20.00	7.326	0.14514	7.13457	2.0
32.1994	66.6896	2.82	-0.23	10.00	-20.00	7.326	0.14265	7.13462	0.0
32.2194	66.6896	2.82	-0.23	10.00	-20.00	7.326	0.14016	7.13467	0.0
32.2394	66.6896	2.82	-0.23	10.00	-20.00	7.326	0.13767	7.13472	0.0
32.2594	66.6896	2.82	-0.23	10.00	-20.00	7.326	0.13518	7.13477	4.0
32.2794	66.6896	2.82	-0.23	10.00	-20.00	7.326	0.13269	7.13481	2.0
32.2994	66.6896	2.82	-0.23	10.00	-20.00	7.326	0.13019	7.13486	2.0
32.3194	66.6896	2.82	-0.23	10.00	-20.00	7.326	0.12770	7.13490	2.0
32.3394	66.6896	2.82	-0.23	10.00	-20.00	7.326	0.12521	7.13495	8.0
32.3594	66.6896	2.82	-0.23	10.00	-20.00	7.326	0.12272	7.13499	0.0
32.3794	66.6896	2.82	-0.23	10.00	-20.00	7.326	0.12023	7.13503	2.0
32.3994	66.6896	2.82	-0.23	10.00	-20.00	7.326	0.11774	7.13508	0.0
32.4194	66.6896	2.82	-0.23	10.00	-20.00	7.326	0.11525	7.13512	0.0
32.4394	66.6896	2.82	-0.23	10.00	-20.00	7.326	0.11276	7.13516	0.0
32.4594	66.6896	2.82	-0.23	10.00	-20.00	7.326	0.11027	7.13520	2.0
32.4794	66.6896	2.82	-0.23	10.00	-20.00	7.326	0.10778	7.13523	0.0
32.4994	66.6896	2.82	-0.23	10.00	-20.00	7.326	0.10529	7.13527	0.0
32.5194	66.6896	2.82	-0.23	10.00	-20.00	7.326	0.10280	7.13531	0.0
32.5394	66.6896	2.82	-0.23	10.00	-20.00	7.326	0.10031	7.13534	0.0
32.5594	66.6896	2.82	-0.23	10.00	-20.00	7.326	0.09782	7.13538	2.0
32.5794	66.6896	2.82	-0.23	10.00	-20.00	7.326	0.09533	7.13541	0.0
32.5994	66.6896	2.82	-0.23	10.00	-20.00	7.326	0.09284	7.13544	2.0
32.6194	66.6896	2.82	-0.23	10.00	-20.00	7.326	0.09034	7.13548	2.0
32.6394	66.6896	2.82	-0.23	10.00	-20.00	7.326	0.08785	7.13551	2.0
32.6594	66.6896	2.82	-0.23	10.00	-20.00	7.326	0.08536	7.13554	2.0
32.6794	66.6896	2.82	-0.23	10.00	-20.00	7.326	0.08287	7.13557	8.0
32.6994	66.6896	2.82	-0.23	10.00	-20.00	7.326	0.08038	7.13559	0.0
32.7194	66.6896	2.82	-0.23	10.00	-20.00	7.326	0.07789	7.13562	0.0
32.7394	66.6896	2.82	-0.23	10.00	-20.00	7.326	0.07540	7.13565	0.0
32.7594	66.6896	2.82	-0.23	10.00	-20.00	7.326	0.07291	7.13567	6.0
32.7794	66.6896	2.82	-0.23	10.00	-20.00	7.326	0.07042	7.13570	0.0
32.7994	66.6896	2.82	-0.23	10.00	-20.00	7.326	0.06793	7.13572	0.0
32.8194	66.6896	2.82	-0.23	10.00	-20.00	7.326	0.06544	7.13575	4.0
32.8394	66.6896	2.82	-0.23	10.00	-20.00	7.326	0.06295	7.13577	2.0
32.8594	66.6896	2.82	-0.23	10.00	-20.00	7.326	0.06045	7.13579	0.0
32.8794	66.6896	2.82	-0.23	10.00	-20.00	7.326	0.05796	7.13581	0.0
32.8994	66.6896	2.82	-0.23	10.00	-20.00	7.326	0.05547	7.13583	2.0
32.9194	66.6896	2.82	-0.23	10.00	-20.00	7.326	0.05298	7.13585	0.0
32.9394	66.6896	2.82	-0.23	10.00	-20.00	7.326	0.05049	7.13587	0.0
32.9594	66.6896	2.82	-0.23	10.00	-20.00	7.326	0.04800	7.13589	0.0
32.9794	66.6896	2.82	-0.23	10.00	-20.00	7.326	0.04551	7.13590	0.0
32.9994	66.6896	2.82	-0.23	10.00	-20.00	7.326	0.04302	7.13592	0.0
33.0194	66.6896	2.82	-0.23	10.00	-20.00	7.326	0.04053	7.13593	2.0
33.0394	66.6896	2.82	-0.23	10.00	-20.00	7.326	0.03804	7.13595	2.0
33.0594	66.6896	2.82	-0.23	10.00	-20.00	7.326	0.03555	7.13596	0.0
33.0794	66.6896	2.82	-0.23	10.00	-20.00	7.326	0.03305	7.13597	2.0
33.0994	66.6896	2.82	-0.23	10.00	-20.00	7.326	0.03056	7.13598	4.0
33.1194	66.6896	2.82	-0.23	10.00	-20.00	7.326	0.02807	7.13599	2.0
33.1394	66.6896	2.82	-0.23	10.00	-20.00	7.326	0.02558	7.13600	4.0
33.1594	66.6896	2.82	-0.23	10.00	-20.00	7.326	0.02309	7.13601	0.0
33.1794	66.6896	2.82	-0.23	10.00	-20.00	7.326	0.02060	7.13602	0.0
33.1994	66.6896	2.82	-0.23	10.00	-20.00	7.326	0.01811	7.13602	0.0
33.2194	66.6896	2.82	-0.23	10.00	-20.00	7.326	0.01562	7.13603	2.0
33.2394	66.6896	2.82	-0.23	10.00	-20.00	7.326	0.01313	7.13604	2.0
33.2594	66.6896	2.82	-0.23	10.00	-20.00	7.326	0.01064	7.13604	0.0
33.2794	66.6896	2.82	-0.23	10.00	-20.00	7.326	0.00815	7.13604	0.0
33.2994	66.6896	2.82	-0.23	10.00	-20.00	7.326	0.00565	7.13605	2.0
33.3194	66.6896	2.82	-0.23	10.00	-20.00	7.326	0.00316	7.13605	2.0
33.3394	66.6896	2.82	-0.23	10.00	-20.00	7.326	0.00067	7.13605	4.0
33.3594	66.6896	2.82	-0.23	10.00	-20.00	7.326	-0.00182	7.13605	4.0
33.3794	66.6896	2.82	-0.23	10.00	-20.00	7.326	-0.00431	7.13605	2.0
33.3994	66.6896	2.82	-0.23	10.00	-20.00	7.326	-0.00680	7.13604	0.0
33.4194	66.6896	2.82	-0.23	10.00	-20.00	7.326	-0.00929	7.13604	0.0
33.4394	66.6896	2.82	-0.23	10.00	-20.00	7.326	-0.01178	7.13604	2.0
33.4594	66.6896	2.82	-0.23	10.00	-20.00	7.326	-0.01427	7.13603	0.0
33.4794	66.6896	2.82	-0.23	10.00	-20.00	7.326	-0.01676	7.13603	0.0
33.4994	66.6896	2.82	-0.23	10.00	-20.00	7.326	-0.01926	7.13602	0.0
33.5194	66.6896	2.82	-0.23	10.00	-20.00	7.326	-0.02175	7.13601	4.0
33.5394	66.6896	2.82	-0.23	10.00	-20.00	7.326	-0.02424	7.13601	0.0
33.5594	66.6896	2.82	-0.23	10.00	-20.00	7.326	-0.02673	7.13600	0.0
33.5794	66.6896	2.82	-0.23	10.00	-20.00	7.326	-0.02922	7.13599	0.0
33.5994	66.6896	2.82	-0.23	10.00	-20.00	7.326	-0.03171	7.13598	0.0
33.6194	66.6896	2.82	-0.23	10.00	-20.00	7.326	-0.03420	7.13597	2.0
33.6394	66.6896	2.82	-0.23	10.00	-20.00	7.326	-0.03669	7.13595	0.0
33.6594	66.6896	2.82	-0.23	10.00	-20.00	7.326	-0.03918	7.13594	4.0
33.6794	66.6896	2.82	-0.23	10.00	-20.00	7.326	-0.04167	7.13593	0.0
33.6994	66.6896	2.82	-0.23	10.00	-20.00	7.326	-0.04416	7.13591	2.0
33.7194	66.6896	2.82	-0.23	10.00	-20.00	7.326	-0.04666	7.13589	0.0
33.7394	66.6896	2.82	-0.23	10.00	-20.00	7.326	-0.04915	7.13588	0.0
33.7594	66.6896	2.82	-0.23	10.00	-20.00	7.326	-0.05164	7.13586	0.0
33.7794	66.6896	2.82	-0.23	10.00	-20.00	7.326	-0.05413	7.13584	0.0
33.7994	66.6896	2.82	-0.23	10.00	-20.00	7.326	-0.05662	7.13582	0.0
33.8194	66.6896	2.82	-0.23	10.00	-20.00	7.326	-0.05911	7.13580	0.0
33.8394	66.6896	2.82	-0.23	10.00	-20.00	7.326	-0.06160	7.13578	0.0
33.8594	66.6896	2.82	-0.23	10.00	-20.00	7.326	-0.06409	7.13576	0.0
33.8794	66.6896	2.82	-0.23	10.00	-20.00	7.326	-0.06658	7.13574	2.0
33.8994	66.6896	2.82	-0.23	10.00	-20.00	7.326	-0.06907	7.13571	2.0
33.9194	66.6896	2.82	-0.23	10.00	-20.00	7.326	-0.07156	7.13569	0.0
33.9394	66.6896	2.82	-0.23	10.00	-20.00	7.326	-0.07405	7.13566	0.0
33.9594	66.6896	2.82	-0.23	10.00	-20.00	7.326	-0.07655	7.13564	0.0
33.9794	66.6896	2.82	-0.23	10.00	-20.00	7.326	-0.07904	7.13561	2.0
33.9994	66.6896	2.82	-0.23	10.00	-20.00	7.326	-0.08153	7.13558	0.0
34.0194	66.6896	2.82	-0.23	10.00	-20.00	7.326	-0.08402	7.13555	0.0
34.0394	66.6896	2.82	-0.23	10.00	-20.00	7.326	-0.08651	7.13552	4.0
34.0594	66.6896	2.82	-0.23	10.00	-20.00	7.326	-0.08900	7.13549	0.0
34.0794	66.6896	2.82	-0.23	10.00	-20.00	7.326	-0.09149	7.13546	2.0
34.0994	66.6896	2.82	-0.23	10.00	-20.00	7.326	-0.09398	7.13543	2.0
34.1194	66.6896	2.82	-0.23	10.00	-20.00	7.326	-0.09647	7.13540	2.0
34.1394	66.6896	2.82	-0.23	10.00	-20.00	7.326	-0.09896	7.13536	4.0
34.1594	66.6896	2.82	-0.23	10.00	-20.00	7.326	-0.10145	7.13533	0.0

32.1694	66.7096	2.82	-0.23	10.00	-20.00	7.326	0.14767	7.13641	0.0
32.1894	66.7096	2.82	-0.23	10.00	-20.00	7.326	0.14518	7.13646	0.0
32.2094	66.7096	2.82	-0.23	10.00	-20.00	7.326	0.14269	7.13651	0.0
32.2294	66.7096	2.82	-0.23	10.00	-20.00	7.326	0.14019	7.13656	0.0
32.2494	66.7096	2.82	-0.23	10.00	-20.00	7.326	0.13770	7.13661	0.0
32.2694	66.7096	2.82	-0.23	10.00	-20.00	7.326	0.13521	7.13666	2.0
32.2894	66.7096	2.82	-0.23	10.00	-20.00	7.326	0.13272	7.13671	0.0
32.3094	66.7096	2.82	-0.23	10.00	-20.00	7.326	0.13023	7.13675	2.0
32.3294	66.7096	2.82	-0.23	10.00	-20.00	7.326	0.12774	7.13680	0.0
32.3494	66.7096	2.82	-0.23	10.00	-20.00	7.326	0.12525	7.13684	0.0
32.3694	66.7096	2.82	-0.23	10.00	-20.00	7.326	0.12276	7.13688	2.0
32.3894	66.7096	2.82	-0.23	10.00	-20.00	7.326	0.12026	7.13693	0.0
32.4094	66.7096	2.82	-0.23	10.00	-20.00	7.326	0.11777	7.13697	2.0
32.4294	66.7096	2.82	-0.23	10.00	-20.00	7.326	0.11528	7.13701	0.0
32.4494	66.7096	2.82	-0.23	10.00	-20.00	7.326	0.11279	7.13705	0.0
32.4694	66.7096	2.82	-0.23	10.00	-20.00	7.326	0.11030	7.13709	2.0
32.4894	66.7096	2.82	-0.23	10.00	-20.00	7.326	0.10781	7.13713	2.0
32.5094	66.7096	2.82	-0.23	10.00	-20.00	7.326	0.10532	7.13716	2.0
32.5294	66.7096	2.82	-0.23	10.00	-20.00	7.326	0.10283	7.13720	0.0
32.5494	66.7096	2.82	-0.23	10.00	-20.00	7.326	0.10033	7.13723	2.0
32.5694	66.7096	2.82	-0.23	10.00	-20.00	7.326	0.09784	7.13727	4.0
32.5894	66.7096	2.82	-0.23	10.00	-20.00	7.326	0.09535	7.13730	2.0
32.6094	66.7096	2.82	-0.23	10.00	-20.00	7.326	0.09286	7.13734	0.0
32.6294	66.7096	2.82	-0.23	10.00	-20.00	7.326	0.09037	7.13737	0.0
32.6494	66.7096	2.82	-0.23	10.00	-20.00	7.326	0.08788	7.13740	2.0
32.6694	66.7096	2.82	-0.23	10.00	-20.00	7.326	0.08539	7.13743	0.0
32.6894	66.7096	2.82	-0.23	10.00	-20.00	7.326	0.08289	7.13746	2.0
32.7094	66.7096	2.82	-0.23	10.00	-20.00	7.326	0.08040	7.13749	0.0
32.7294	66.7096	2.82	-0.23	10.00	-20.00	7.326	0.07791	7.13751	2.0
32.7494	66.7096	2.82	-0.23	10.00	-20.00	7.326	0.07542	7.13754	0.0
32.7694	66.7096	2.82	-0.23	10.00	-20.00	7.326	0.07293	7.13757	0.0
32.7894	66.7096	2.82	-0.23	10.00	-20.00	7.326	0.07044	7.13759	2.0
32.8094	66.7096	2.82	-0.23	10.00	-20.00	7.326	0.06795	7.13762	2.0
32.8294	66.7096	2.82	-0.23	10.00	-20.00	7.326	0.06545	7.13764	0.0
32.8494	66.7096	2.82	-0.23	10.00	-20.00	7.326	0.06296	7.13766	2.0
32.8694	66.7096	2.82	-0.23	10.00	-20.00	7.326	0.06047	7.13768	2.0
32.8894	66.7096	2.82	-0.23	10.00	-20.00	7.326	0.05798	7.13770	0.0
32.9094	66.7096	2.82	-0.23	10.00	-20.00	7.326	0.05549	7.13772	2.0
32.9294	66.7096	2.82	-0.23	10.00	-20.00	7.326	0.05300	7.13774	0.0
32.9494	66.7096	2.82	-0.23	10.00	-20.00	7.326	0.05050	7.13776	0.0
32.9694	66.7096	2.82	-0.23	10.00	-20.00	7.326	0.04801	7.13778	4.0
32.9894	66.7096	2.82	-0.23	10.00	-20.00	7.326	0.04552	7.13779	2.0
33.0094	66.7096	2.82	-0.23	10.00	-20.00	7.326	0.04303	7.13781	4.0
33.0294	66.7096	2.82	-0.23	10.00	-20.00	7.326	0.04054	7.13783	0.0
33.0494	66.7096	2.82	-0.23	10.00	-20.00	7.326	0.03805	7.13784	0.0
33.0694	66.7096	2.82	-0.23	10.00	-20.00	7.326	0.03556	7.13785	2.0
33.0894	66.7096	2.82	-0.23	10.00	-20.00	7.326	0.03306	7.13786	2.0
33.1094	66.7096	2.82	-0.23	10.00	-20.00	7.326	0.03057	7.13787	0.0
33.1294	66.7096	2.82	-0.23	10.00	-20.00	7.326	0.02808	7.13788	0.0
33.1494	66.7096	2.82	-0.23	10.00	-20.00	7.326	0.02559	7.13789	0.0
33.1694	66.7096	2.82	-0.23	10.00	-20.00	7.326	0.02310	7.13790	0.0
33.1894	66.7096	2.82	-0.23	10.00	-20.00	7.326	0.02061	7.13791	0.0
33.2094	66.7096	2.82	-0.23	10.00	-20.00	7.326	0.01811	7.13792	0.0
33.2294	66.7096	2.82	-0.23	10.00	-20.00	7.326	0.01562	7.13792	2.0
33.2494	66.7096	2.82	-0.23	10.00	-20.00	7.326	0.01313	7.13793	0.0
33.2694	66.7096	2.82	-0.23	10.00	-20.00	7.326	0.01064	7.13793	0.0
33.2894	66.7096	2.82	-0.23	10.00	-20.00	7.326	0.00815	7.13794	2.0
33.3094	66.7096	2.82	-0.23	10.00	-20.00	7.326	0.00566	7.13794	2.0
33.3294	66.7096	2.82	-0.23	10.00	-20.00	7.326	0.00316	7.13794	4.0
33.3494	66.7096	2.82	-0.23	10.00	-20.00	7.326	0.00067	7.13794	2.0
33.3694	66.7096	2.82	-0.23	10.00	-20.00	7.326	-0.00182	7.13794	0.0
33.3894	66.7096	2.82	-0.23	10.00	-20.00	7.326	-0.00431	7.13794	0.0
33.4094	66.7096	2.82	-0.23	10.00	-20.00	7.326	-0.00680	7.13794	2.0
33.4294	66.7096	2.82	-0.23	10.00	-20.00	7.326	-0.00929	7.13793	2.0
33.4494	66.7096	2.82	-0.23	10.00	-20.00	7.326	-0.01179	7.13793	2.0
33.4694	66.7096	2.82	-0.23	10.00	-20.00	7.326	-0.01428	7.13793	0.0
33.4894	66.7096	2.82	-0.23	10.00	-20.00	7.326	-0.01677	7.13792	0.0
33.5094	66.7096	2.82	-0.23	10.00	-20.00	7.326	-0.01926	7.13791	0.0
33.5294	66.7096	2.82	-0.23	10.00	-20.00	7.326	-0.02175	7.13791	0.0
33.5494	66.7096	2.82	-0.23	10.00	-20.00	7.326	-0.02424	7.13790	0.0
33.5694	66.7096	2.82	-0.23	10.00	-20.00	7.326	-0.02673	7.13789	0.0
33.5894	66.7096	2.82	-0.23	10.00	-20.00	7.326	-0.02923	7.13788	0.0
33.6094	66.7096	2.82	-0.23	10.00	-20.00	7.326	-0.03172	7.13787	0.0
33.6294	66.7096	2.82	-0.23	10.00	-20.00	7.326	-0.03421	7.13786	0.0
33.6494	66.7096	2.82	-0.23	10.00	-20.00	7.326	-0.03670	7.13785	0.0
33.6694	66.7096	2.82	-0.23	10.00	-20.00	7.326	-0.03919	7.13783	0.0
33.6894	66.7096	2.82	-0.23	10.00	-20.00	7.326	-0.04168	7.13782	2.0
33.7094	66.7096	2.82	-0.23	10.00	-20.00	7.326	-0.04418	7.13780	0.0
33.7294	66.7096	2.82	-0.23	10.00	-20.00	7.326	-0.04667	7.13779	4.0
33.7494	66.7096	2.82	-0.23	10.00	-20.00	7.326	-0.04916	7.13777	2.0
33.7694	66.7096	2.82	-0.23	10.00	-20.00	7.326	-0.05165	7.13775	0.0
33.7894	66.7096	2.82	-0.23	10.00	-20.00	7.326	-0.05414	7.13773	0.0
33.8094	66.7096	2.82	-0.23	10.00	-20.00	7.326	-0.05663	7.13772	2.0
33.8294	66.7096	2.82	-0.23	10.00	-20.00	7.326	-0.05913	7.13770	2.0
33.8494	66.7096	2.82	-0.23	10.00	-20.00	7.326	-0.06162	7.13767	0.0
33.8694	66.7096	2.82	-0.23	10.00	-20.00	7.326	-0.06411	7.13765	2.0
33.8894	66.7096	2.82	-0.23	10.00	-20.00	7.326	-0.06660	7.13763	2.0
33.9094	66.7096	2.82	-0.23	10.00	-20.00	7.326	-0.06909	7.13761	0.0
33.9294	66.7096	2.82	-0.23	10.00	-20.00	7.326	-0.07158	7.13758	2.0
33.9494	66.7096	2.82	-0.23	10.00	-20.00	7.326	-0.07407	7.13756	0.0
33.9694	66.7096	2.82	-0.23	10.00	-20.00	7.326	-0.07657	7.13753	0.0
33.9894	66.7096	2.82	-0.23	10.00	-20.00	7.326	-0.07906	7.13750	0.0
34.0094	66.7096	2.82	-0.23	10.00	-20.00	7.326	-0.08155	7.13747	4.0
34.0294	66.7096	2.82	-0.23	10.00	-20.00	7.326	-0.08404	7.13745	0.0
34.0494	66.7096	2.82	-0.23	10.00	-20.00	7.326	-0.08653	7.13742	0.0
34.0694	66.7096	2.82	-0.23	10.00	-20.00	7.326	-0.08902	7.13738	0.0
34.0894	66.7096	2.82	-0.23	10.00	-20.00	7.326	-0.09151	7.13735	0.0
34.1094	66.7096	2.82	-0.23	10.00	-20.00	7.326	-0.09401	7.13732	0.0
34.1294	66.7096	2.82	-0.23	10.00	-20.00	7.326	-0.09650	7.13729	4.0
34.1494	66.7096	2.82	-0.23	10.00	-20.00	7.326	-0.09899	7.13725	2.0
34.1694	66.7096	2.82	-0.23	10.00	-20.00	7.326	-0.10148	7.13722	2.0

32.1794	66.7296	2.82	-0.23	10.00	-20.00	7.326	0.14771	7.13830	6.0
32.1994	66.7296	2.82	-0.23	10.00	-20.00	7.326	0.14521	7.13836	4.0
32.2194	66.7296	2.82	-0.23	10.00	-20.00	7.326	0.14272	7.13841	0.0
32.2394	66.7296	2.82	-0.23	10.00	-20.00	7.326	0.14023	7.13846	0.0
32.2594	66.7296	2.82	-0.23	10.00	-20.00	7.326	0.13774	7.13850	4.0
32.2794	66.7296	2.82	-0.23	10.00	-20.00	7.326	0.13525	7.13855	0.0
32.2994	66.7296	2.82	-0.23	10.00	-20.00	7.326	0.13276	7.13860	0.0
32.3194	66.7296	2.82	-0.23	10.00	-20.00	7.326	0.13026	7.13864	2.0
32.3394	66.7296	2.82	-0.23	10.00	-20.00	7.326	0.12777	7.13869	2.0
32.3594	66.7296	2.82	-0.23	10.00	-20.00	7.326	0.12528	7.13873	0.0
32.3794	66.7296	2.82	-0.23	10.00	-20.00	7.326	0.12279	7.13878	2.0
32.3994	66.7296	2.82	-0.23	10.00	-20.00	7.326	0.12030	7.13882	4.0
32.4194	66.7296	2.82	-0.23	10.00	-20.00	7.326	0.11780	7.13886	0.0
32.4394	66.7296	2.82	-0.23	10.00	-20.00	7.326	0.11531	7.13890	4.0
32.4594	66.7296	2.82	-0.23	10.00	-20.00	7.326	0.11282	7.13894	0.0
32.4794	66.7296	2.82	-0.23	10.00	-20.00	7.326	0.11033	7.13898	2.0
32.4994	66.7296	2.82	-0.23	10.00	-20.00	7.326	0.10784	7.13902	2.0
32.5194	66.7296	2.82	-0.23	10.00	-20.00	7.326	0.10534	7.13906	0.0
32.5394	66.7296	2.82	-0.23	10.00	-20.00	7.326	0.10285	7.13909	0.0
32.5594	66.7296	2.82	-0.23	10.00	-20.00	7.326	0.10036	7.13913	0.0
32.5794	66.7296	2.82	-0.23	10.00	-20.00	7.326	0.09787	7.13916	0.0
32.5994	66.7296	2.82	-0.23	10.00	-20.00	7.326	0.09538	7.13920	2.0
32.6194	66.7296	2.82	-0.23	10.00	-20.00	7.326	0.09288	7.13923	4.0
32.6394	66.7296	2.82	-0.23	10.00	-20.00	7.326	0.09039	7.13926	0.0
32.6594	66.7296	2.82	-0.23	10.00	-20.00	7.326	0.08790	7.13929	0.0
32.6794	66.7296	2.82	-0.23	10.00	-20.00	7.326	0.08541	7.13932	4.0
32.6994	66.7296	2.82	-0.23	10.00	-20.00	7.326	0.08292	7.13935	6.0
32.7194	66.7296	2.82	-0.23	10.00	-20.00	7.326	0.08042	7.13938	0.0
32.7394	66.7296	2.82	-0.23	10.00	-20.00	7.326	0.07793	7.13941	6.0
32.7594	66.7296	2.82	-0.23	10.00	-20.00	7.326	0.07544	7.13943	0.0
32.7794	66.7296	2.82	-0.23	10.00	-20.00	7.326	0.07295	7.13946	0.0
32.7994	66.7296	2.82	-0.23	10.00	-20.00	7.326	0.07046	7.13949	0.0
32.8194	66.7296	2.82	-0.23	10.00	-20.00	7.326	0.06796	7.13951	0.0
32.8394	66.7296	2.82	-0.23	10.00	-20.00	7.326	0.06547	7.13953	0.0
32.8594	66.7296	2.82	-0.23	10.00	-20.00	7.326	0.06298	7.13955	0.0
32.8794	66.7296	2.82	-0.23	10.00	-20.00	7.326	0.06049	7.13958	0.0
32.8994	66.7296	2.82	-0.23	10.00	-20.00	7.326	0.05799	7.13960	2.0
32.9194	66.7296	2.82	-0.23	10.00	-20.00	7.326	0.05550	7.13962	0.0
32.9394	66.7296	2.82	-0.23	10.00	-20.00	7.326	0.05301	7.13964	6.0
32.9594	66.7296	2.82	-0.23	10.00	-20.00	7.326	0.05052	7.13965	0.0
32.9794	66.7296	2.82	-0.23	10.00	-20.00	7.326	0.04803	7.13967	2.0
32.9994	66.7296	2.82	-0.23	10.00	-20.00	7.326	0.04553	7.13969	0.0
33.0194	66.7296	2.82	-0.23	10.00	-20.00	7.326	0.04304	7.13970	0.0
33.0394	66.7296	2.82	-0.23	10.00	-20.00	7.326	0.04055	7.13972	0.0
33.0594	66.7296	2.82	-0.23	10.00	-20.00	7.326	0.03806	7.13973	2.0
33.0794	66.7296	2.82	-0.23	10.00	-20.00	7.326	0.03556	7.13974	2.0
33.0994	66.7296	2.82	-0.23	10.00	-20.00	7.326	0.03307	7.13976	2.0
33.1194	66.7296	2.82	-0.23	10.00	-20.00	7.326	0.03058	7.13977	0.0
33.1394	66.7296	2.82	-0.23	10.00	-20.00	7.326	0.02809	7.13978	0.0
33.1594	66.7296	2.82	-0.23	10.00	-20.00	7.326	0.02560	7.13979	2.0
33.1794	66.7296	2.82	-0.23	10.00	-20.00	7.326	0.02310	7.13980	2.0
33.1994	66.7296	2.82	-0.23	10.00	-20.00	7.326	0.02061	7.13980	4.0
33.2194	66.7296	2.82	-0.23	10.00	-20.00	7.326	0.01812	7.13981	0.0
33.2394	66.7296	2.82	-0.23	10.00	-20.00	7.326	0.01563	7.13982	2.0
33.2594	66.7296	2.82	-0.23	10.00	-20.00	7.326	0.01313	7.13982	2.0
33.2794	66.7296	2.82	-0.23	10.00	-20.00	7.326	0.01064	7.13982	2.0
33.2994	66.7296	2.82	-0.23	10.00	-20.00	7.326	0.00815	7.13983	2.0
33.3194	66.7296	2.82	-0.23	10.00	-20.00	7.326	0.00566	7.13983	2.0
33.3394	66.7296	2.82	-0.23	10.00	-20.00	7.326	0.00317	7.13983	0.0
33.3594	66.7296	2.82	-0.23	10.00	-20.00	7.326	0.00067	7.13983	2.0
33.3794	66.7296	2.82	-0.23	10.00	-20.00	7.326	-0.00182	7.13983	0.0
33.3994	66.7296	2.82	-0.23	10.00	-20.00	7.326	-0.00431	7.13983	0.0
33.4194	66.7296	2.82	-0.23	10.00	-20.00	7.326	-0.00680	7.13983	2.0
33.4394	66.7296	2.82	-0.23	10.00	-20.00	7.326	-0.00930	7.13983	0.0
33.4594	66.7296	2.82	-0.23	10.00	-20.00	7.326	-0.01179	7.13982	0.0
33.4794	66.7296	2.82	-0.23	10.00	-20.00	7.326	-0.01428	7.13982	0.0
33.4994	66.7296	2.82	-0.23	10.00	-20.00	7.326	-0.01677	7.13981	0.0
33.5194	66.7296	2.82	-0.23	10.00	-20.00	7.326	-0.01927	7.13981	2.0
33.5394	66.7296	2.82	-0.23	10.00	-20.00	7.326	-0.02176	7.13980	4.0
33.5594	66.7296	2.82	-0.23	10.00	-20.00	7.326	-0.02425	7.13979	2.0
33.5794	66.7296	2.82	-0.23	10.00	-20.00	7.326	-0.02674	7.13978	0.0
33.5994	66.7296	2.82	-0.23	10.00	-20.00	7.326	-0.02923	7.13977	0.0
33.6194	66.7296	2.82	-0.23	10.00	-20.00	7.326	-0.03173	7.13976	0.0
33.6394	66.7296	2.82	-0.23	10.00	-20.00	7.326	-0.03422	7.13975	6.0
33.6594	66.7296	2.82	-0.23	10.00	-20.00	7.326	-0.03671	7.13974	0.0
33.6794	66.7296	2.82	-0.23	10.00	-20.00	7.326	-0.03920	7.13973	2.0
33.6994	66.7296	2.82	-0.23	10.00	-20.00	7.326	-0.04170	7.13971	0.0
33.7194	66.7296	2.82	-0.23	10.00	-20.00	7.326	-0.04419	7.13970	0.0
33.7394	66.7296	2.82	-0.23	10.00	-20.00	7.326	-0.04668	7.13968	0.0
33.7594	66.7296	2.82	-0.23	10.00	-20.00	7.326	-0.04917	7.13966	0.0
33.7794	66.7296	2.82	-0.23	10.00	-20.00	7.326	-0.05166	7.13965	2.0
33.7994	66.7296	2.82	-0.23	10.00	-20.00	7.326	-0.05416	7.13963	2.0
33.8194	66.7296	2.82	-0.23	10.00	-20.00	7.326	-0.05665	7.13961	0.0
33.8394	66.7296	2.82	-0.23	10.00	-20.00	7.326	-0.05914	7.13959	2.0
33.8594	66.7296	2.82	-0.23	10.00	-20.00	7.326	-0.06163	7.13957	2.0
33.8794	66.7296	2.82	-0.23	10.00	-20.00	7.326	-0.06413	7.13954	2.0
33.8994	66.7296	2.82	-0.23	10.00	-20.00	7.326	-0.06662	7.13952	0.0
33.9194	66.7296	2.82	-0.23	10.00	-20.00	7.326	-0.06911	7.13950	0.0
33.9394	66.7296	2.82	-0.23	10.00	-20.00	7.326	-0.07160	7.13947	0.0
33.9594	66.7296	2.82	-0.23	10.00	-20.00	7.326	-0.07409	7.13945	0.0
33.9794	66.7296	2.82	-0.23	10.00	-20.00	7.326	-0.07659	7.13942	0.0
33.9994	66.7296	2.82	-0.23	10.00	-20.00	7.326	-0.07908	7.13939	2.0
34.0194	66.7296	2.82	-0.23	10.00	-20.00	7.326	-0.08157	7.13937	0.0
34.0394	66.7296	2.82	-0.23	10.00	-20.00	7.326	-0.08406	7.13934	4.0
34.0594	66.7296	2.82	-0.23	10.00	-20.00	7.326	-0.08655	7.13931	0.0
34.0794	66.7296	2.82	-0.23	10.00	-20.00	7.326	-0.08905	7.13928	2.0
34.0994	66.7296	2.82	-0.23	10.00	-20.00	7.326	-0.09154	7.13925	0.0
34.1194	66.7296	2.82	-0.23	10.00	-20.00	7.326	-0.09403	7.13921	2.0
34.1394	66.7296	2.82	-0.23	10.00	-20.00	7.326	-0.09652	7.13918	2.0
34.1594	66.7296	2.82	-0.23	10.00	-20.00	7.326	-0.09901	7.13915	0.0
34.1794	66.7296	2.82	-0.23	10.00	-20.00	7.326	-0.10151	7.13911	2.0

32.1894	66.7496	2.82	-0.23	10.00	-20.00	7.326	0.14775	7.14020	0.0
32.2094	66.7496	2.82	-0.23	10.00	-20.00	7.326	0.14525	7.14025	4.0
32.2294	66.7496	2.82	-0.23	10.00	-20.00	7.326	0.14276	7.14030	0.0
32.2494	66.7496	2.82	-0.23	10.00	-20.00	7.326	0.14027	7.14035	2.0
32.2694	66.7496	2.82	-0.23	10.00	-20.00	7.326	0.13778	7.14040	2.0
32.2894	66.7496	2.82	-0.23	10.00	-20.00	7.326	0.13528	7.14044	4.0
32.3094	66.7496	2.82	-0.23	10.00	-20.00	7.326	0.13279	7.14049	2.0
32.3294	66.7496	2.82	-0.23	10.00	-20.00	7.326	0.13030	7.14054	0.0
32.3494	66.7496	2.82	-0.23	10.00	-20.00	7.326	0.12781	7.14058	0.0
32.3694	66.7496	2.82	-0.23	10.00	-20.00	7.326	0.12531	7.14063	2.0
32.3894	66.7496	2.82	-0.23	10.00	-20.00	7.326	0.12282	7.14067	2.0
32.4094	66.7496	2.82	-0.23	10.00	-20.00	7.326	0.12033	7.14071	0.0
32.4294	66.7496	2.82	-0.23	10.00	-20.00	7.326	0.11784	7.14075	2.0
32.4494	66.7496	2.82	-0.23	10.00	-20.00	7.326	0.11534	7.14079	0.0
32.4694	66.7496	2.82	-0.23	10.00	-20.00	7.326	0.11285	7.14083	0.0
32.4894	66.7496	2.82	-0.23	10.00	-20.00	7.326	0.11036	7.14087	0.0
32.5094	66.7496	2.82	-0.23	10.00	-20.00	7.326	0.10787	7.14091	2.0
32.5294	66.7496	2.82	-0.23	10.00	-20.00	7.326	0.10537	7.14095	0.0
32.5494	66.7496	2.82	-0.23	10.00	-20.00	7.326	0.10288	7.14098	0.0
32.5694	66.7496	2.82	-0.23	10.00	-20.00	7.326	0.10039	7.14102	2.0
32.5894	66.7496	2.82	-0.23	10.00	-20.00	7.326	0.09789	7.14105	2.0
32.6094	66.7496	2.82	-0.23	10.00	-20.00	7.326	0.09540	7.14109	0.0
32.6294	66.7496	2.82	-0.23	10.00	-20.00	7.326	0.09291	7.14112	0.0
32.6494	66.7496	2.82	-0.23	10.00	-20.00	7.326	0.09042	7.14115	0.0
32.6694	66.7496	2.82	-0.23	10.00	-20.00	7.326	0.08792	7.14118	0.0
32.6894	66.7496	2.82	-0.23	10.00	-20.00	7.326	0.08543	7.14121	2.0
32.7094	66.7496	2.82	-0.23	10.00	-20.00	7.326	0.08294	7.14124	0.0
32.7294	66.7496	2.82	-0.23	10.00	-20.00	7.326	0.08045	7.14127	2.0
32.7494	66.7496	2.82	-0.23	10.00	-20.00	7.326	0.07795	7.14130	0.0
32.7694	66.7496	2.82	-0.23	10.00	-20.00	7.326	0.07546	7.14133	0.0
32.7894	66.7496	2.82	-0.23	10.00	-20.00	7.326	0.07297	7.14135	2.0
32.8094	66.7496	2.82	-0.23	10.00	-20.00	7.326	0.07047	7.14138	4.0
32.8294	66.7496	2.82	-0.23	10.00	-20.00	7.326	0.06798	7.14140	4.0
32.8494	66.7496	2.82	-0.23	10.00	-20.00	7.326	0.06549	7.14142	0.0
32.8694	66.7496	2.82	-0.23	10.00	-20.00	7.326	0.06300	7.14145	0.0
32.8894	66.7496	2.82	-0.23	10.00	-20.00	7.326	0.06050	7.14147	8.0
32.9094	66.7496	2.82	-0.23	10.00	-20.00	7.326	0.05801	7.14149	0.0
32.9294	66.7496	2.82	-0.23	10.00	-20.00	7.326	0.05552	7.14151	0.0
32.9494	66.7496	2.82	-0.23	10.00	-20.00	7.326	0.05302	7.14153	2.0
32.9694	66.7496	2.82	-0.23	10.00	-20.00	7.326	0.05053	7.14155	2.0
32.9894	66.7496	2.82	-0.23	10.00	-20.00	7.326	0.04804	7.14156	0.0
33.0094	66.7496	2.82	-0.23	10.00	-20.00	7.326	0.04555	7.14158	4.0
33.0294	66.7496	2.82	-0.23	10.00	-20.00	7.326	0.04305	7.14160	6.0
33.0494	66.7496	2.82	-0.23	10.00	-20.00	7.326	0.04056	7.14161	2.0
33.0694	66.7496	2.82	-0.23	10.00	-20.00	7.326	0.03807	7.14162	4.0
33.0894	66.7496	2.82	-0.23	10.00	-20.00	7.326	0.03557	7.14164	2.0
33.1094	66.7496	2.82	-0.23	10.00	-20.00	7.326	0.03308	7.14165	2.0
33.1294	66.7496	2.82	-0.23	10.00	-20.00	7.326	0.03059	7.14166	0.0
33.1494	66.7496	2.82	-0.23	10.00	-20.00	7.326	0.02810	7.14167	0.0
33.1694	66.7496	2.82	-0.23	10.00	-20.00	7.326	0.02560	7.14168	2.0
33.1894	66.7496	2.82	-0.23	10.00	-20.00	7.326	0.02311	7.14169	4.0
33.2094	66.7496	2.82	-0.23	10.00	-20.00	7.326	0.02062	7.14170	0.0
33.2294	66.7496	2.82	-0.23	10.00	-20.00	7.326	0.01812	7.14170	0.0
33.2494	66.7496	2.82	-0.23	10.00	-20.00	7.326	0.01563	7.14171	0.0
33.2694	66.7496	2.82	-0.23	10.00	-20.00	7.326	0.01314	7.14171	0.0
33.2894	66.7496	2.82	-0.23	10.00	-20.00	7.326	0.01064	7.14172	2.0
33.3094	66.7496	2.82	-0.23	10.00	-20.00	7.326	0.00815	7.14172	0.0
33.3294	66.7496	2.82	-0.23	10.00	-20.00	7.326	0.00566	7.14172	2.0
33.3494	66.7496	2.82	-0.23	10.00	-20.00	7.326	0.00317	7.14172	4.0
33.3694	66.7496	2.82	-0.23	10.00	-20.00	7.326	0.00067	7.14172	0.0
33.3894	66.7496	2.82	-0.23	10.00	-20.00	7.326	-0.00182	7.14172	2.0
33.4094	66.7496	2.82	-0.23	10.00	-20.00	7.326	-0.00431	7.14172	0.0
33.4294	66.7496	2.82	-0.23	10.00	-20.00	7.326	-0.00681	7.14172	0.0
33.4494	66.7496	2.82	-0.23	10.00	-20.00	7.326	-0.00930	7.14172	0.0
33.4694	66.7496	2.82	-0.23	10.00	-20.00	7.326	-0.01179	7.14172	2.0
33.4894	66.7496	2.82	-0.23	10.00	-20.00	7.326	-0.01428	7.14171	0.0
33.5094	66.7496	2.82	-0.23	10.00	-20.00	7.326	-0.01678	7.14171	2.0
33.5294	66.7496	2.82	-0.23	10.00	-20.00	7.326	-0.01927	7.14170	2.0
33.5494	66.7496	2.82	-0.23	10.00	-20.00	7.326	-0.02176	7.14169	2.0
33.5694	66.7496	2.82	-0.23	10.00	-20.00	7.326	-0.02426	7.14168	0.0
33.5894	66.7496	2.82	-0.23	10.00	-20.00	7.326	-0.02675	7.14167	0.0
33.6094	66.7496	2.82	-0.23	10.00	-20.00	7.326	-0.02924	7.14167	2.0
33.6294	66.7496	2.82	-0.23	10.00	-20.00	7.326	-0.03173	7.14165	2.0
33.6494	66.7496	2.82	-0.23	10.00	-20.00	7.326	-0.03423	7.14164	0.0
33.6694	66.7496	2.82	-0.23	10.00	-20.00	7.326	-0.03672	7.14163	0.0
33.6894	66.7496	2.82	-0.23	10.00	-20.00	7.326	-0.03921	7.14162	0.0
33.7094	66.7496	2.82	-0.23	10.00	-20.00	7.326	-0.04171	7.14160	0.0
33.7294	66.7496	2.82	-0.23	10.00	-20.00	7.326	-0.04420	7.14159	2.0
33.7494	66.7496	2.82	-0.23	10.00	-20.00	7.326	-0.04669	7.14157	0.0
33.7694	66.7496	2.82	-0.23	10.00	-20.00	7.326	-0.04919	7.14156	4.0
33.7894	66.7496	2.82	-0.23	10.00	-20.00	7.326	-0.05168	7.14154	0.0
33.8094	66.7496	2.82	-0.23	10.00	-20.00	7.326	-0.05417	7.14152	0.0
33.8294	66.7496	2.82	-0.23	10.00	-20.00	7.326	-0.05666	7.14150	0.0
33.8494	66.7496	2.82	-0.23	10.00	-20.00	7.326	-0.05916	7.14148	2.0
33.8694	66.7496	2.82	-0.23	10.00	-20.00	7.326	-0.06165	7.14146	0.0
33.8894	66.7496	2.82	-0.23	10.00	-20.00	7.326	-0.06414	7.14144	0.0
33.9094	66.7496	2.82	-0.23	10.00	-20.00	7.326	-0.06664	7.14141	0.0
33.9294	66.7496	2.82	-0.23	10.00	-20.00	7.326	-0.06913	7.14139	0.0
33.9494	66.7496	2.82	-0.23	10.00	-20.00	7.326	-0.07162	7.14137	2.0
33.9694	66.7496	2.82	-0.23	10.00	-20.00	7.326	-0.07411	7.14134	0.0
33.9894	66.7496	2.82	-0.23	10.00	-20.00	7.326	-0.07661	7.14131	0.0
34.0094	66.7496	2.82	-0.23	10.00	-20.00	7.326	-0.07910	7.14129	0.0
34.0294	66.7496	2.82	-0.23	10.00	-20.00	7.326	-0.08159	7.14126	2.0
34.0494	66.7496	2.82	-0.23	10.00	-20.00	7.326	-0.08408	7.14123	0.0
34.0694	66.7496	2.82	-0.23	10.00	-20.00	7.326	-0.08658	7.14120	0.0
34.0894	66.7496	2.82	-0.23	10.00	-20.00	7.326	-0.08907	7.14117	2.0
34.1094	66.7496	2.82	-0.23	10.00	-20.00	7.326	-0.09156	7.14114	0.0
34.1294	66.7496	2.82	-0.23	10.00	-20.00	7.326	-0.09406	7.14111	0.0
34.1494	66.7496	2.82	-0.23	10.00	-20.00	7.326	-0.09655	7.14107	0.0
34.1694	66.7496	2.82	-0.23	10.00	-20.00	7.326	-0.09904	7.14104	0.0
34.1894	66.7496	2.82	-0.23	10.00	-20.00	7.326	-0.10153	7.14100	4.0

32.1994	66.7696	2.82	-0.23	10.00	-20.00	7.326	0.14778	7.14209	0.0
32.2194	66.7696	2.82	-0.23	10.00	-20.00	7.326	0.14529	7.14214	2.0
32.2394	66.7696	2.82	-0.23	10.00	-20.00	7.326	0.14280	7.14219	0.0
32.2594	66.7696	2.82	-0.23	10.00	-20.00	7.326	0.14031	7.14224	0.0
32.2794	66.7696	2.82	-0.23	10.00	-20.00	7.326	0.13781	7.14229	0.0
32.2994	66.7696	2.82	-0.23	10.00	-20.00	7.326	0.13532	7.14234	0.0
32.3194	66.7696	2.82	-0.23	10.00	-20.00	7.326	0.13283	7.14238	0.0
32.3394	66.7696	2.82	-0.23	10.00	-20.00	7.326	0.13033	7.14243	0.0
32.3594	66.7696	2.82	-0.23	10.00	-20.00	7.326	0.12784	7.14247	2.0
32.3794	66.7696	2.82	-0.23	10.00	-20.00	7.326	0.12535	7.14252	0.0
32.3994	66.7696	2.82	-0.23	10.00	-20.00	7.326	0.12285	7.14256	0.0
32.4194	66.7696	2.82	-0.23	10.00	-20.00	7.326	0.12036	7.14260	0.0
32.4394	66.7696	2.82	-0.23	10.00	-20.00	7.326	0.11787	7.14264	2.0
32.4594	66.7696	2.82	-0.23	10.00	-20.00	7.326	0.11537	7.14269	0.0
32.4794	66.7696	2.82	-0.23	10.00	-20.00	7.326	0.11288	7.14273	0.0
32.4994	66.7696	2.82	-0.23	10.00	-20.00	7.326	0.11039	7.14276	2.0
32.5194	66.7696	2.82	-0.23	10.00	-20.00	7.326	0.10789	7.14280	0.0
32.5394	66.7696	2.82	-0.23	10.00	-20.00	7.326	0.10540	7.14284	0.0
32.5594	66.7696	2.82	-0.23	10.00	-20.00	7.326	0.10291	7.14288	4.0
32.5794	66.7696	2.82	-0.23	10.00	-20.00	7.326	0.10041	7.14291	4.0
32.5994	66.7696	2.82	-0.23	10.00	-20.00	7.326	0.09792	7.14295	0.0
32.6194	66.7696	2.82	-0.23	10.00	-20.00	7.326	0.09543	7.14298	0.0
32.6394	66.7696	2.82	-0.23	10.00	-20.00	7.326	0.09293	7.14301	0.0
32.6594	66.7696	2.82	-0.23	10.00	-20.00	7.326	0.09044	7.14304	2.0
32.6794	66.7696	2.82	-0.23	10.00	-20.00	7.326	0.08795	7.14308	0.0
32.6994	66.7696	2.82	-0.23	10.00	-20.00	7.326	0.08545	7.14311	2.0
32.7194	66.7696	2.82	-0.23	10.00	-20.00	7.326	0.08296	7.14314	2.0
32.7394	66.7696	2.82	-0.23	10.00	-20.00	7.326	0.08047	7.14316	0.0
32.7594	66.7696	2.82	-0.23	10.00	-20.00	7.326	0.07797	7.14319	0.0
32.7794	66.7696	2.82	-0.23	10.00	-20.00	7.326	0.07548	7.14322	0.0
32.7994	66.7696	2.82	-0.23	10.00	-20.00	7.326	0.07299	7.14324	0.0
32.8194	66.7696	2.82	-0.23	10.00	-20.00	7.326	0.07049	7.14327	4.0
32.8394	66.7696	2.82	-0.23	10.00	-20.00	7.326	0.06800	7.14329	2.0
32.8594	66.7696	2.82	-0.23	10.00	-20.00	7.326	0.06551	7.14332	0.0
32.8794	66.7696	2.82	-0.23	10.00	-20.00	7.326	0.06301	7.14334	0.0
32.8994	66.7696	2.82	-0.23	10.00	-20.00	7.326	0.06052	7.14336	2.0
32.9194	66.7696	2.82	-0.23	10.00	-20.00	7.326	0.05803	7.14338	0.0
32.9394	66.7696	2.82	-0.23	10.00	-20.00	7.326	0.05553	7.14340	0.0
32.9594	66.7696	2.82	-0.23	10.00	-20.00	7.326	0.05304	7.14342	2.0
32.9794	66.7696	2.82	-0.23	10.00	-20.00	7.326	0.05054	7.14344	6.0
32.9994	66.7696	2.82	-0.23	10.00	-20.00	7.326	0.04805	7.14346	0.0
33.0194	66.7696	2.82	-0.23	10.00	-20.00	7.326	0.04556	7.14347	0.0
33.0394	66.7696	2.82	-0.23	10.00	-20.00	7.326	0.04306	7.14349	4.0
33.0594	66.7696	2.82	-0.23	10.00	-20.00	7.326	0.04057	7.14350	0.0
33.0794	66.7696	2.82	-0.23	10.00	-20.00	7.326	0.03808	7.14352	4.0
33.0994	66.7696	2.82	-0.23	10.00	-20.00	7.326	0.03558	7.14353	0.0
33.1194	66.7696	2.82	-0.23	10.00	-20.00	7.326	0.03309	7.14354	0.0
33.1394	66.7696	2.82	-0.23	10.00	-20.00	7.326	0.03060	7.14355	0.0
33.1594	66.7696	2.82	-0.23	10.00	-20.00	7.326	0.02810	7.14356	4.0
33.1794	66.7696	2.82	-0.23	10.00	-20.00	7.326	0.02561	7.14357	0.0
33.1994	66.7696	2.82	-0.23	10.00	-20.00	7.326	0.02312	7.14358	0.0
33.2194	66.7696	2.82	-0.23	10.00	-20.00	7.326	0.02062	7.14359	0.0
33.2394	66.7696	2.82	-0.23	10.00	-20.00	7.326	0.01813	7.14359	0.0
33.2594	66.7696	2.82	-0.23	10.00	-20.00	7.326	0.01563	7.14360	4.0
33.2794	66.7696	2.82	-0.23	10.00	-20.00	7.326	0.01314	7.14360	2.0
33.2994	66.7696	2.82	-0.23	10.00	-20.00	7.326	0.01065	7.14361	0.0
33.3194	66.7696	2.82	-0.23	10.00	-20.00	7.326	0.00815	7.14361	0.0
33.3394	66.7696	2.82	-0.23	10.00	-20.00	7.326	0.00566	7.14361	8.0
33.3594	66.7696	2.82	-0.23	10.00	-20.00	7.326	0.00317	7.14362	0.0
33.3794	66.7696	2.82	-0.23	10.00	-20.00	7.326	0.00067	7.14362	0.0
33.3994	66.7696	2.82	-0.23	10.00	-20.00	7.326	-0.00182	7.14362	0.0
33.4194	66.7696	2.82	-0.23	10.00	-20.00	7.326	-0.00431	7.14362	2.0
33.4394	66.7696	2.82	-0.23	10.00	-20.00	7.326	-0.00681	7.14361	2.0
33.4594	66.7696	2.82	-0.23	10.00	-20.00	7.326	-0.00930	7.14361	0.0
33.4794	66.7696	2.82	-0.23	10.00	-20.00	7.326	-0.01179	7.14361	0.0
33.4994	66.7696	2.82	-0.23	10.00	-20.00	7.326	-0.01429	7.14360	6.0
33.5194	66.7696	2.82	-0.23	10.00	-20.00	7.326	-0.01678	7.14360	4.0
33.5394	66.7696	2.82	-0.23	10.00	-20.00	7.326	-0.01928	7.14359	0.0
33.5594	66.7696	2.82	-0.23	10.00	-20.00	7.326	-0.02177	7.14358	0.0
33.5794	66.7696	2.82	-0.23	10.00	-20.00	7.326	-0.02426	7.14358	2.0
33.5994	66.7696	2.82	-0.23	10.00	-20.00	7.326	-0.02676	7.14357	0.0
33.6194	66.7696	2.82	-0.23	10.00	-20.00	7.326	-0.02925	7.14356	6.0
33.6394	66.7696	2.82	-0.23	10.00	-20.00	7.326	-0.03174	7.14355	4.0
33.6594	66.7696	2.82	-0.23	10.00	-20.00	7.326	-0.03424	7.14353	0.0
33.6794	66.7696	2.82	-0.23	10.00	-20.00	7.326	-0.03673	7.14352	0.0
33.6994	66.7696	2.82	-0.23	10.00	-20.00	7.326	-0.03922	7.14351	0.0
33.7194	66.7696	2.82	-0.23	10.00	-20.00	7.326	-0.04172	7.14350	0.0
33.7394	66.7696	2.82	-0.23	10.00	-20.00	7.326	-0.04421	7.14348	0.0
33.7594	66.7696	2.82	-0.23	10.00	-20.00	7.326	-0.04670	7.14346	0.0
33.7794	66.7696	2.82	-0.23	10.00	-20.00	7.326	-0.04920	7.14345	2.0
33.7994	66.7696	2.82	-0.23	10.00	-20.00	7.326	-0.05169	7.14343	0.0
33.8194	66.7696	2.82	-0.23	10.00	-20.00	7.326	-0.05419	7.14341	0.0
33.8394	66.7696	2.82	-0.23	10.00	-20.00	7.326	-0.05668	7.14339	4.0
33.8594	66.7696	2.82	-0.23	10.00	-20.00	7.326	-0.05917	7.14337	2.0
33.8794	66.7696	2.82	-0.23	10.00	-20.00	7.326	-0.06167	7.14335	0.0
33.8994	66.7696	2.82	-0.23	10.00	-20.00	7.326	-0.06416	7.14333	2.0
33.9194	66.7696	2.82	-0.23	10.00	-20.00	7.326	-0.06665	7.14331	0.0
33.9394	66.7696	2.82	-0.23	10.00	-20.00	7.326	-0.06915	7.14328	0.0
33.9594	66.7696	2.82	-0.23	10.00	-20.00	7.326	-0.07164	7.14326	0.0
33.9794	66.7696	2.82	-0.23	10.00	-20.00	7.326	-0.07413	7.14323	0.0
33.9994	66.7696	2.82	-0.23	10.00	-20.00	7.326	-0.07663	7.14321	2.0
34.0194	66.7696	2.82	-0.23	10.00	-20.00	7.326	-0.07912	7.14318	2.0
[...]
33.6494	69.5896	2.82	-0.23	10.00	-20.00	7.326	0.14809	7.40671	0.0
33.6694	69.5896	2.82	-0.23	10.00	-20.00	7.326	0.14550	7.40676	0.0
33.6894	69.5896	2.82	-0.23	10.00	-20.00	7.326	0.14292	7.40681	0.0
33.7094	69.5896	2.82	-0.23	10.00	-20.00	7.326	0.14033	7.40686	4.0
33.7294	69.5896	2.82	-0.23	10.00	-20.00	7.326	0.13775	7.40691	4.0
33.7494	69.5896	2.82	-0.23	10.00	-20.00	7.326	0.13516	7.40696	0.0
33.7694	69.5896	2.82	-0.23	10.00	-20.00	7.326	0.13257	7.40701	4.0
33.7894	69.5896	2.82	-0.23	10.00	-20.00	7.326	0.12999	7.40705	2.0
33.8094	69.5896	2.82	-0.23	10.00	-20.00	7.326	0.12740	7.40710	2.0
33.8294	69.5896	2.82	-0.23	10.00	-20.00	7.326	0.12482	7.40714	0.0
33.8494	69.5896	2.82	-0.23	10.00	-20.00	7.326	0.12223	7.40718	0.0
33.8694	69.5896	2.82	-0.23	10.00	-20.00	7.326	0.11965	7.40723	0.0
33.8894	69.5896	2.82	-0.23	10.00	-20.00	7.326	0.11706	7.40727	2.0
33.9094	69.5896	2.82	-0.23	10.00	-20.00	7.326	0.11448	7.40731	0.0
33.9294	69.5896	2.82	-0.23	10.00	-20.00	7.326	0.11189	7.40735	0.0
33.9494	69.5896	2.82	-0.23	10.00	-20.00	7.326	0.10930	7.40739	2.0
33.9694	69.5896	2.82	-0.23	10.00	-20.00	7.326	0.10672	7.40742	2.0
33.9894	69.5896	2.82	-0.23	10.00	-20.00	7.326	0.10413	7.40746	0.0
34.0094	69.5896	2.82	-0.23	10.00	-20.00	7.326	0.10155	7.40750	0.0
34.0294	69.5896	2.82	-0.23	10.00	-20.00	7.326	0.09896	7.40753	2.0
34.0494	69.5896	2.82	-0.23	10.00	-20.00	7.326	0.09638	7.40757	0.0
34.0694	69.5896	2.82	-0.23	10.00	-20.00	7.326	0.09379	7.40760	0.0
34.0894	69.5896	2.82	-0.23	10.00	-20.00	7.326	0.09120	7.40763	0.0
34.1094	69.5896	2.82	-0.23	10.00	-20.00	7.326	0.08862	7.40766	0.0
34.1294	69.5896	2.82	-0.23	10.00	-20.00	7.326	0.08603	7.40769	4.0
34.1494	69.5896	2.82	-0.23	10.00	-20.00	7.326	0.08345	7.40772	0.0
34.1694	69.5896	2.82	-0.23	10.00	-20.00	7.326	0.08086	7.40775	2.0
34.1894	69.5896	2.82	-0.23	10.00	-20.00	7.326	0.07828	7.40778	2.0
34.2094	69.5896	2.82	-0.23	10.00	-20.00	7.326	0.07569	7.40781	2.0
34.2294	69.5896	2.82	-0.23	10.00	-20.00	7.326	0.07310	7.40783	2.0
34.2494	69.5896	2.82	-0.23	10.00	-20.00	7.326	0.07052	7.40786	2.0
34.2694	69.5896	2.82	-0.23	10.00	-20.00	7.326	0.06793	7.40788	0.0
34.2894	69.5896	2.82	-0.23	10.00	-20.00	7.326	0.06535	7.40790	2.0
34.3094	69.5896	2.82	-0.23	10.00	-20.00	7.326	0.06276	7.40793	0.0
34.3294	69.5896	2.82	-0.23	10.00	-20.00	7.326	0.06017	7.40795	2.0
34.3494	69.5896	2.82	-0.23	10.00	-20.00	7.326	0.05759	7.40797	2.0
34.3694	69.5896	2.82	-0.23	10.00	-20.00	7.326	0.05500	7.40799	2.0
34.3894	69.5896	2.82	-0.23	10.00	-20.00	7.326	0.05242	7.40801	22.0
34.4094	69.5896	2.82	-0.23	10.00	-20.00	7.326	0.04983	7.40803	6.0
34.4294	69.5896	2.82	-0.23	10.00	-20.00	7.326	0.04724	7.40804	4.0
34.4494	69.5896	2.82	-0.23	10.00	-20.00	7.326	0.04466	7.40806	0.0
34.4694	69.5896	2.82	-0.23	10.00	-20.00	7.326	0.04207	7.40807	0.0
34.4894	69.5896	2.82	-0.23	10.00	-20.00	7.326	0.03949	7.40809	2.0
34.5094	69.5896	2.82	-0.23	10.00	-20.00	7.326	0.03690	7.40810	0.0
34.5294	69.5896	2.82	-0.23	10.00	-20.00	7.326	0.03432	7.40811	2.0
34.5494	69.5896	2.82	-0.23	10.00	-20.00	7.326	0.03173	7.40813	0.0
34.5694	69.5896	2.82	-0.23	10.00	-20.00	7.326	0.02914	7.40814	4.0
34.5894	69.5896	2.82	-0.23	10.00	-20.00	7.326	0.02656	7.40815	2.0
34.6094	69.5896	2.82	-0.23	10.00	-20.00	7.326	0.02397	7.40815	2.0
34.6294	69.5896	2.82	-0.23	10.00	-20.00	7.326	0.02139	7.40816	6.0
34.6494	69.5896	2.82	-0.23	10.00	-20.00	7.326	0.01880	7.40817	4.0
34.6694	69.5896	2.82	-0.23	10.00	-20.00	7.326	0.01621	7.40818	6.0
34.6894	69.5896	2.82	-0.23	10.00	-20.00	7.326	0.01363	7.40818	6.0
34.7094	69.5896	2.82	-0.23	10.00	-20.00	7.326	0.01104	7.40818	6.0
34.7294	69.5896	2.82	-0.23	10.00	-20.00	7.326	0.00846	7.40819	0.0
34.7494	69.5896	2.82	-0.23	10.00	-20.00	7.326	0.00587	7.40819	2.0
34.7694	69.5896	2.82	-0.23	10.00	-20.00	7.326	0.00328	7.40819	2.0
34.7894	69.5896	2.82	-0.23	10.00	-20.00	7.326	0.00070	7.40819	4.0
34.8094	69.5896	2.82	-0.23	10.00	-20.00	7.326	-0.00189	7.40819	4.0
34.8294	69.5896	2.82	-0.23	10.00	-20.00	7.326	-0.00447	7.40819	8.0
34.8494	69.5896	2.82	-0.23	10.00	-20.00	7.326	-0.00706	7.40819	2.0
34.8694	69.5896	2.82	-0.23	10.00	-20.00	7.326	-0.00965	7.40819	0.0
34.8894	69.5896	2.82	-0.23	10.00	-20.00	7.326	-0.01223	7.40818	0.0
34.9094	69.5896	2.82	-0.23	10.00	-20.00	7.326	-0.01482	7.40818	0.0
34.9294	69.5896	2.82	-0.23	10.00	-20.00	7.326	-0.01740	7.40817	0.0
34.9494	69.5896	2.82	-0.23	10.00	-20.00	7.326	-0.01999	7.40817	4.0
34.9694	69.5896	2.82	-0.23	10.00	-20.00	7.326	-0.02258	7.40816	2.0
34.9894	69.5896	2.82	-0.23	10.00	-20.00	7.326	-0.02516	7.40815	0.0
35.0094	69.5896	2.82	-0.23	10.00	-20.00	7.326	-0.02775	7.40814	2.0
35.0294	69.5896	2.82	-0.23	10.00	-20.00	7.326	-0.03033	7.40813	6.0
35.0494	69.5896	2.82	-0.23	10.00	-20.00	7.326	-0.03292	7.40812	0.0
35.0694	69.5896	2.82	-0.23	10.00	-20.00	7.326	-0.03550	7.40811	2.0
35.0894	69.5896	2.82	-0.23	10.00	-20.00	7.326	-0.03809	7.40810	0.0
35.1094	69.5896	2.82	-0.23	10.00	-20.00	7.326	-0.04068	7.40808	2.0
35.1294	69.5896	2.82	-0.23	10.00	-20.00	7.326	-0.04326	7.40807	4.0
35.1494	69.5896	2.82	-0.23	10.00	-20.00	7.326	-0.04585	7.40805	0.0
35.1694	69.5896	2.82	-0.23	10.00	-20.00	7.326	-0.04843	7.40803	0.0
35.1894	69.5896	2.82	-0.23	10.00	-20.00	7.326	-0.05102	7.40802	0.0
35.2094	69.5896	2.82	-0.23	10.00	-20.00	7.326	-0.05361	7.40800	2.0
35.2294	69.5896	2.82	-0.23	10.00	-20.00	7.326	-0.05619	7.40798	0.0
35.2494	69.5896	2.82	-0.23	10.00	-20.00	7.326	-0.05878	7.40796	2.0
35.2694	69.5896	2.82	-0.23	10.00	-20.00	7.326	-0.06136	7.40794	2.0
35.2894	69.5896	2.82	-0.23	10.00	-20.00	7.326	-0.06395	7.40792	2.0
35.3094	69.5896	2.82	-0.23	10.00	-20.00	7.326	-0.06654	7.40789	6.0
35.3294	69.5896	2.82	-0.23	10.00	-20.00	7.326	-0.06912	7.40787	0.0
35.3494	69.5896	2.82	-0.23	10.00	-20.00	7.326	-0.07171	7.40785	2.0
35.3694	69.5896	2.82	-0.23	10.00	-20.00	7.326	-0.07429	7.40782	4.0
35.3894	69.5896	2.82	-0.23	10.00	-20.00	7.326	-0.07688	7.40779	0.0
35.4094	69.5896	2.82	-0.23	10.00	-20.00	7.326	-0.07946	7.40777	0.0
35.4294	69.5896	2.82	-0.23	10.00	-20.00	7.326	-0.08205	7.40774	0.0
35.4494	69.5896	2.82	-0.23	10.00	-20.00	7.326	-0.08464	7.40771	0.0
35.4694	69.5896	2.82	-0.23	10.00	-20.00	7.326	-0.08722	7.40768	0.0
35.4894	69.5896	2.82	-0.23	10.00	-20.00	7.326	-0.08981	7.40765	0.0
35.5094	69.5896	2.82	-0.23	10.00	-20.00	7.326	-0.09239	7.40762	0.0
35.5294	69.5896	2.82	-0.23	10.00	-20.00	7.326	-0.09498	7.40758	2.0
35.5494	69.5896	2.82	-0.23	10.00	-20.00	7.326	-0.09756	7.40755	0.0
35.5694	69.5896	2.82	-0.23	10.00	-20.00	7.326	-0.10015	7.40752	0.0
35.5894	69.5896	2.82	-0.23	10.00	-20.00	7.326	-0.10274	7.40748	2.0
35.6094	69.5896	2.82	-0.23	10.00	-20.00	7.326	-0.10532	7.40744	0.0

33.6194	69.6096	2.82	-0.23	10.00	-20.00	7.326	0.15330	7.40847	2.0
33.6394	69.6096	2.82	-0.23	10.00	-20.00	7.326	0.15071	7.40852	0.0
33.6594	69.6096	2.82	-0.23	10.00	-20.00	7.326	0.14812	7.40857	2.0
33.6794	69.6096	2.82	-0.23	10.00	-20.00	7.326	0.14554	7.40862	4.0
33.6994	69.6096	2.82	-0.23	10.00	-20.00	7.326	0.14295	7.40867	4.0
33.7194	69.6096	2.82	-0.23	10.00	-20.00	7.326	0.14037	7.40872	0.0
33.7394	69.6096	2.82	-0.23	10.00	-20.00	7.326	0.13778	7.40877	2.0
33.7594	69.6096	2.82	-0.23	10.00	-20.00	7.326	0.13519	7.40882	0.0
33.7794	69.6096	2.82	-0.23	10.00	-20.00	7.326	0.13261	7.40887	0.0
33.7994	69.6096	2.82	-0.23	10.00	-20.00	7.326	0.13002	7.40891	0.0
33.8194	69.6096	2.82	-0.23	10.00	-20.00	7.326	0.12744	7.40896	0.0
33.8394	69.6096	2.82	-0.23	10.00	-20.00	7.326	0.12485	7.40900	6.0
33.8594	69.6096	2.82	-0.23	10.00	-20.00	7.326	0.12226	7.40904	2.0
33.8794	69.6096	2.82	-0.23	10.00	-20.00	7.326	0.11968	7.40909	6.0
33.8994	69.6096	2.82	-0.23	10.00	-20.00	7.326	0.11709	7.40913	0.0
33.9194	69.6096	2.82	-0.23	10.00	-20.00	7.326	0.11450	7.40917	0.0
33.9394	69.6096	2.82	-0.23	10.00	-20.00	7.326	0.11192	7.40921	0.0
33.9594	69.6096	2.82	-0.23	10.00	-20.00	7.326	0.10933	7.40925	0.0
33.9794	69.6096	2.82	-0.23	10.00	-20.00	7.326	0.10675	7.40928	2.0
33.9994	69.6096	2.82	-0.23	10.00	-20.00	7.326	0.10416	7.40932	4.0
34.0194	69.6096	2.82	-0.23	10.00	-20.00	7.326	0.10157	7.40936	0.0
34.0394	69.6096	2.82	-0.23	10.00	-20.00	7.326	0.09899	7.40939	0.0
34.0594	69.6096	2.82	-0.23	10.00	-20.00	7.326	0.09640	7.40943	0.0
34.0794	69.6096	2.82	-0.23	10.00	-20.00	7.326	0.09381	7.40946	4.0
34.0994	69.6096	2.82	-0.23	10.00	-20.00	7.326	0.09123	7.40949	0.0
34.1194	69.6096	2.82	-0.23	10.00	-20.00	7.326	0.08864	7.40952	4.0
34.1394	69.6096	2.82	-0.23	10.00	-20.00	7.326	0.08605	7.40955	0.0
34.1594	69.6096	2.82	-0.23	10.00	-20.00	7.326	0.08347	7.40958	2.0
34.1794	69.6096	2.82	-0.23	10.00	-20.00	7.326	0.08088	7.40961	0.0
34.1994	69.6096	2.82	-0.23	10.00	-20.00	7.326	0.07829	7.40964	0.0
34.2194	69.6096	2.82	-0.23	10.00	-20.00	7.326	0.07571	7.40967	4.0
34.2394	69.6096	2.82	-0.23	10.00	-20.00	7.326	0.07312	7.40969	2.0
34.2594	69.6096	2.82	-0.23	10.00	-20.00	7.326	0.07054	7.40972	4.0
34.2794	69.6096	2.82	-0.23	10.00	-20.00	7.326	0.06795	7.40974	6.0
34.2994	69.6096	2.82	-0.23	10.00	-20.00	7.326	0.06536	7.40977	0.0
34.3194	69.6096	2.82	-0.23	10.00	-20.00	7.326	0.06278	7.40979	0.0
34.3394	69.6096	2.82	-0.23	10.00	-20.00	7.326	0.06019	7.40981	0.0
34.3594	69.6096	2.82	-0.23	10.00	-20.00	7.326	0.05760	7.40983	2.0
34.3794	69.6096	2.82	-0.23	10.00	-20.00	7.326	0.05502	7.40985	18.0
34.3994	69.6096	2.82	-0.23	10.00	-20.00	7.326	0.05243	7.40987	6.0
34.4194	69.6096	2.82	-0.23	10.00	-20.00	7.326	0.04984	7.40989	2.0
34.4394	69.6096	2.82	-0.23	10.00	-20.00	7.326	0.04726	7.40990	4.0
34.4594	69.6096	2.82	-0.23	10.00	-20.00	7.326	0.04467	7.40992	0.0
34.4794	69.6096	2.82	-0.23	10.00	-20.00	7.326	0.04208	7.40993	0.0
34.4994	69.6096	2.82	-0.23	10.00	-20.00	7.326	0.03950	7.40995	0.0
34.5194	69.6096	2.82	-0.23	10.00	-20.00	7.326	0.03691	7.40996	2.0
34.5394	69.6096	2.82	-0.23	10.00	-20.00	7.326	0.03432	7.40997	4.0
34.5594	69.6096	2.82	-0.23	10.00	-20.00	7.326	0.03174	7.40999	2.0
34.5794	69.6096	2.82	-0.23	10.00	-20.00	7.326	0.02915	7.41000	4.0
34.5994	69.6096	2.82	-0.23	10.00	-20.00	7.326	0.02656	7.41001	4.0
34.6194	69.6096	2.82	-0.23	10.00	-20.00	7.326	0.02398	7.41001	0.0
34.6394	69.6096	2.82	-0.23	10.00	-20.00	7.326	0.02139	7.41002	0.0
34.6594	69.6096	2.82	-0.23	10.00	-20.00	7.326	0.01880	7.41003	2.0
34.6794	69.6096	2.82	-0.23	10.00	-20.00	7.326	0.01622	7.41004	0.0
34.6994	69.6096	2.82	-0.23	10.00	-20.00	7.326	0.01363	7.41004	4.0
34.7194	69.6096	2.82	-0.23	10.00	-20.00	7.326	0.01104	7.41005	2.0
34.7394	69.6096	2.82	-0.23	10.00	-20.00	7.326	0.00846	7.41005	0.0
34.7594	69.6096	2.82	-0.23	10.00	-20.00	7.326	0.00587	7.41005	2.0
34.7794	69.6096	2.82	-0.23	10.00	-20.00	7.326	0.00328	7.41005	4.0
34.7994	69.6096	2.82	-0.23	10.00	-20.00	7.326	0.00070	7.41005	0.0
34.8194	69.6096	2.82	-0.23	10.00	-20.00	7.326	-0.00189	7.41005	6.0
34.8394	69.6096	2.82	-0.23	10.00	-20.00	7.326	-0.00447	7.41005	4.0
34.8594	69.6096	2.82	-0.23	10.00	-20.00	7.326	-0.00706	7.41005	2.0
34.8794	69.6096	2.82	-0.23	10.00	-20.00	7.326	-0.00965	7.41005	2.0
34.8994	69.6096	2.82	-0.23	10.00	-20.00	7.326	-0.01223	7.41004	4.0
34.9194	69.6096	2.82	-0.23	10.00	-20.00	7.326	-0.01482	7.41004	4.0
34.9394	69.6096	2.82	-0.23	10.00	-20.00	7.326	-0.01741	7.41003	0.0
34.9594	69.6096	2.82	-0.23	10.00	-20.00	7.326	-0.01999	7.41003	2.0
34.9794	69.6096	2.82	-0.23	10.00	-20.00	7.326	-0.02258	7.41002	0.0
34.9994	69.6096	2.82	-0.23	10.00	-20.00	7.326	-0.02517	7.41001	0.0
35.0194	69.6096	2.82	-0.23	10.00	-20.00	7.326	-0.02775	7.41000	2.0
35.0394	69.6096	2.82	-0.23	10.00	-20.00	7.326	-0.03034	7.40999	0.0
35.0594	69.6096	2.82	-0.23	10.00	-20.00	7.326	-0.03293	7.40998	0.0
35.0794	69.6096	2.82	-0.23	10.00	-20.00	7.326	-0.03551	7.40997	2.0
35.0994	69.6096	2.82	-0.23	10.00	-20.00	7.326	-0.03810	7.40996	2.0
35.1194	69.6096	2.82	-0.23	10.00	-20.00	7.326	-0.04069	7.40994	0.0
35.1394	69.6096	2.82	-0.23	10.00	-20.00	7.326	-0.04327	7.40993	0.0
35.1594	69.6096	2.82	-0.23	10.00	-20.00	7.326	-0.04586	7.40991	4.0
35.1794	69.6096	2.82	-0.23	10.00	-20.00	7.326	-0.04845	7.40990	0.0
35.1994	69.6096	2.82	-0.23	10.00	-20.00	7.326	-0.05103	7.40988	0.0
35.2194	69.6096	2.82	-0.23	10.00	-20.00	7.326	-0.05362	7.40986	2.0
35.2394	69.6096	2.82	-0.23	10.00	-20.00	7.326	-0.05621	7.40984	0.0
35.2594	69.6096	2.82	-0.23	10.00	-20.00	7.326	-0.05879	7.40982	4.0
35.2794	69.6096	2.82	-0.23	10.00	-20.00	7.326	-0.06138	7.40980	0.0
35.2994	69.6096	2.82	-0.23	10.00	-20.00	7.326	-0.06397	7.40978	2.0
35.3194	69.6096	2.82	-0.23	10.00	-20.00	7.326	-0.06655	7.40975	0.0
35.3394	69.6096	2.82	-0.23	10.00	-20.00	7.326	-0.06914	7.40973	0.0
35.3594	69.6096	2.82	-0.23	10.00	-20.00	7.326	-0.07173	7.40971	0.0
35.3794	69.6096	2.82	-0.23	10.00	-20.00	7.326	-0.07431	7.40968	0.0
35.3994	69.6096	2.82	-0.23	10.00	-20.00	7.326	-0.07690	7.40965	0.0
35.4194	69.6096	2.82	-0.23	10.00	-20.00	7.326	-0.07948	7.40963	4.0
35.4394	69.6096	2.82	-0.23	10.00	-20.00	7.326	-0.08207	7.40960	4.0
35.4594	69.6096	2.82	-0.23	10.00	-20.00	7.326	-0.08466	7.40957	2.0
35.4794	69.6096	2.82	-0.23	10.00	-20.00	7.326	-0.08724	7.40954	2.0
35.4994	69.6096	2.82	-0.23	10.00	-20.00	7.326	-0.08983	7.40951	6.0
35.5194	69.6096	2.82	-0.23	10.00	-20.00	7.326	-0.09242	7.40948	0.0
35.5394	69.6096	2.82	-0.23	10.00	-20.00	7.326	-0.09500	7.40944	0.0
35.5594	69.6096	2.82	-0.23	10.00	-20.00	7.326	-0.09759	7.40941	2.0
35.5794	69.6096	2.82	-0.23	10.00	-20.00	7.326	-0.10018	7.40938	0.0
35.5994	69.6096	2.82	-0.23	10.00	-20.00	7.326	-0.10276	7.40934	0.0
35.6194	69.6096	2.82	-0.23	10.00	-20.00	7.326	-0.10535	7.40930	2.0

33.6294	69.6296	2.82	-0.23	10.00	-20.00	7.326	0.15334	7.41033	0.0
33.6494	69.6296	2.82	-0.23	10.00	-20.00	7.326	0.15075	7.41038	4.0
33.6694	69.6296	2.82	-0.23	10.00	-20.00	7.326	0.14816	7.41043	0.0
33.6894	69.6296	2.82	-0.23	10.00	-20.00	7.326	0.14557	7.41048	2.0
33.7094	69.6296	2.82	-0.23	10.00	-20.00	7.326	0.14299	7.41053	2.0
33.7294	69.6296	2.82	-0.23	10.00	-20.00	7.326	0.14040	7.41058	4.0
33.7494	69.6296	2.82	-0.23	10.00	-20.00	7.326	0.13781	7.41063	0.0
33.7694	69.6296	2.82	-0.23	10.00	-20.00	7.326	0.13523	7.41068	2.0
33.7894	69.6296	2.82	-0.23	10.00	-20.00	7.326	0.13264	7.41073	0.0
33.8094	69.6296	2.82	-0.23	10.00	-20.00	7.326	0.13005	7.41077	6.0
33.8294	69.6296	2.82	-0.23	10.00	-20.00	7.326	0.12747	7.41082	2.0
33.8494	69.6296	2.82	-0.23	10.00	-20.00	7.326	0.12488	7.41086	2.0
33.8694	69.6296	2.82	-0.23	10.00	-20.00	7.326	0.12229	7.41091	2.0
33.8894	69.6296	2.82	-0.23	10.00	-20.00	7.326	0.11971	7.41095	4.0
33.9094	69.6296	2.82	-0.23	10.00	-20.00	7.326	0.11712	7.41099	2.0
33.9294	69.6296	2.82	-0.23	10.00	-20.00	7.326	0.11453	7.41103	0.0
33.9494	69.6296	2.82	-0.23	10.00	-20.00	7.326	0.11195	7.41107	2.0
33.9694	69.6296	2.82	-0.23	10.00	-20.00	7.326	0.10936	7.41111	0.0
33.9894	69.6296	2.82	-0.23	10.00	-20.00	7.326	0.10677	7.41114	0.0
34.0094	69.6296	2.82	-0.23	10.00	-20.00	7.326	0.10418	7.41118	0.0
34.0294	69.6296	2.82	-0.23	10.00	-20.00	7.326	0.10160	7.41122	4.0
34.0494	69.6296	2.82	-0.23	10.00	-20.00	7.326	0.09901	7.41125	2.0
34.0694	69.6296	2.82	-0.23	10.00	-20.00	7.326	0.09642	7.41129	0.0
34.0894	69.6296	2.82	-0.23	10.00	-20.00	7.326	0.09384	7.41132	0.0
34.1094	69.6296	2.82	-0.23	10.00	-20.00	7.326	0.09125	7.41135	2.0
34.1294	69.6296	2.82	-0.23	10.00	-20.00	7.326	0.08866	7.41138	2.0
34.1494	69.6296	2.82	-0.23	10.00	-20.00	7.326	0.08608	7.41141	6.0
34.1694	69.6296	2.82	-0.23	10.00	-20.00	7.326	0.08349	7.41144	0.0
34.1894	69.6296	2.82	-0.23	10.00	-20.00	7.326	0.08090	7.41147	4.0
34.2094	69.6296	2.82	-0.23	10.00	-20.00	7.326	0.07831	7.41150	0.0
34.2294	69.6296	2.82	-0.23	10.00	-20.00	7.326	0.07573	7.41153	0.0
34.2494	69.6296	2.82	-0.23	10.00	-20.00	7.326	0.07314	7.41155	2.0
34.2694	69.6296	2.82	-0.23	10.00	-20.00	7.326	0.07055	7.41158	2.0
34.2894	69.6296	2.82	-0.23	10.00	-20.00	7.326	0.06797	7.41160	2.0
34.3094	69.6296	2.82	-0.23	10.00	-20.00	7.326	0.06538	7.41163	0.0
34.3294	69.6296	2.82	-0.23	10.00	-20.00	7.326	0.06279	7.41165	0.0
34.3494	69.6296	2.82	-0.23	10.00	-20.00	7.326	0.06020	7.41167	4.0
34.3694	69.6296	2.82	-0.23	10.00	-20.00	7.326	0.05762	7.41169	8.0
34.3894	69.6296	2.82	-0.23	10.00	-20.00	7.326	0.05503	7.41171	42.0
34.4094	69.6296	2.82	-0.23	10.00	-20.00	7.326	0.05244	7.41173	4.0
34.4294	69.6296	2.82	-0.23	10.00	-20.00	7.326	0.04986	7.41175	0.0
34.4494	69.6296	2.82	-0.23	10.00	-20.00	7.326	0.04727	7.41176	4.0
34.4694	69.6296	2.82	-0.23	10.00	-20.00	7.326	0.04468	7.41178	2.0
34.4894	69.6296	2.82	-0.23	10.00	-20.00	7.326	0.04209	7.41179	0.0
34.5094	69.6296	2.82	-0.23	10.00	-20.00	7.326	0.03951	7.41181	0.0
34.5294	69.6296	2.82	-0.23	10.00	-20.00	7.326	0.03692	7.41182	4.0
34.5494	69.6296	2.82	-0.23	10.00	-20.00	7.326	0.03433	7.41183	0.0
34.5694	69.6296	2.82	-0.23	10.00	-20.00	7.326	0.03175	7.41185	8.0
34.5894	69.6296	2.82	-0.23	10.00	-20.00	7.326	0.02916	7.41186	2.0
34.6094	69.6296	2.82	-0.23	10.00	-20.00	7.326	0.02657	7.41187	2.0
34.6294	69.6296	2.82	-0.23	10.00	-20.00	7.326	0.02398	7.41188	2.0
34.6494	69.6296	2.82	-0.23	10.00	-20.00	7.326	0.02140	7.41188	2.0
34.6694	69.6296	2.82	-0.23	10.00	-20.00	7.326	0.01881	7.41189	2.0
34.6894	69.6296	2.82	-0.23	10.00	-20.00	7.326	0.01622	7.41190	0.0
34.7094	69.6296	2.82	-0.23	10.00	-20.00	7.326	0.01363	7.41190	2.0
34.7294	69.6296	2.82	-0.23	10.00	-20.00	7.326	0.01105	7.41191	2.0
34.7494	69.6296	2.82	-0.23	10.00	-20.00	7.326	0.00846	7.41191	6.0
34.7694	69.6296	2.82	-0.23	10.00	-20.00	7.326	0.00587	7.41191	4.0
34.7894	69.6296	2.82	-0.23	10.00	-20.00	7.326	0.00329	7.41191	0.0
34.8094	69.6296	2.82	-0.23	10.00	-20.00	7.326	0.00070	7.41191	0.0
34.8294	69.6296	2.82	-0.23	10.00	-20.00	7.326	-0.00189	7.41191	2.0
34.8494	69.6296	2.82	-0.23	10.00	-20.00	7.326	-0.00448	7.41191	0.0
34.8694	69.6296	2.82	-0.23	10.00	-20.00	7.326	-0.00706	7.41191	4.0
34.8894	69.6296	2.82	-0.23	10.00	-20.00	7.326	-0.00965	7.41191	4.0
34.9094	69.6296	2.82	-0.23	10.00	-20.00	7.326	-0.01224	7.41190	0.0
34.9294	69.6296	2.82	-0.23	10.00	-20.00	7.326	-0.01482	7.41190	0.0
34.9494	69.6296	2.82	-0.23	10.00	-20.00	7.326	-0.01741	7.41189	0.0
34.9694	69.6296	2.82	-0.23	10.00	-20.00	7.326	-0.02000	7.41189	2.0
34.9894	69.6296	2.82	-0.23	10.00	-20.00	7.326	-0.02259	7.41188	0.0
35.0094	69.6296	2.82	-0.23	10.00	-20.00	7.326	-0.02517	7.41187	2.0
35.0294	69.6296	2.82	-0.23	10.00	-20.00	7.326	-0.02776	7.41186	2.0
35.0494	69.6296	2.82	-0.23	10.00	-20.00	7.326	-0.03035	7.41185	4.0
35.0694	69.6296	2.82	-0.23	10.00	-20.00	7.326	-0.03294	7.41184	0.0
35.0894	69.6296	2.82	-0.23	10.00	-20.00	7.326	-0.03552	7.41183	0.0
35.1094	69.6296	2.82	-0.23	10.00	-20.00	7.326	-0.03811	7.41182	0.0
35.1294	69.6296	2.82	-0.23	10.00	-20.00	7.326	-0.04070	7.41180	4.0
35.1494	69.6296	2.82	-0.23	10.00	-20.00	7.326	-0.04328	7.41179	0.0
35.1694	69.6296	2.82	-0.23	10.00	-20.00	7.326	-0.04587	7.41177	0.0
35.1894	69.6296	2.82	-0.23	10.00	-20.00	7.326	-0.04846	7.41176	0.0
35.2094	69.6296	2.82	-0.23	10.00	-20.00	7.326	-0.05105	7.41174	0.0
35.2294	69.6296	2.82	-0.23	10.00	-20.00	7.326	-0.05363	7.41172	2.0
35.2494	69.6296	2.82	-0.23	10.00	-20.00	7.326	-0.05622	7.41170	0.0
35.2694	69.6296	2.82	-0.23	10.00	-20.00	7.326	-0.05881	7.41168	2.0
35.2894	69.6296	2.82	-0.23	10.00	-20.00	7.326	-0.06139	7.41166	2.0
35.3094	69.6296	2.82	-0.23	10.00	-20.00	7.326	-0.06398	7.41164	4.0
35.3294	69.6296	2.82	-0.23	10.00	-20.00	7.326	-0.06657	7.41162	4.0
35.3494	69.6296	2.82	-0.23	10.00	-20.00	7.326	-0.06916	7.41159	0.0
35.3694	69.6296	2.82	-0.23	10.00	-20.00	7.326	-0.07174	7.41157	2.0
35.3894	69.6296	2.82	-0.23	10.00	-20.00	7.326	-0.07433	7.41154	2.0
35.4094	69.6296	2.82	-0.23	10.00	-20.00	7.326	-0.07692	7.41151	0.0
35.4294	69.6296	2.82	-0.23	10.00	-20.00	7.326	-0.07950	7.41149	0.0
35.4494	69.6296	2.82	-0.23	10.00	-20.00	7.326	-0.08209	7.41146	4.0
35.4694	69.6296	2.82	-0.23	10.00	-20.00	7.326	-0.08468	7.41143	0.0
35.4894	69.6296	2.82	-0.23	10.00	-20.00	7.326	-0.08727	7.41140	0.0
35.5094	69.6296	2.82	-0.23	10.00	-20.00	7.326	-0.08985	7.41137	2.0
35.5294	69.6296	2.82	-0.23	10.00	-20.00	7.326	-0.09244	7.41134	0.0
35.5494	69.6296	2.82	-0.23	10.00	-20.00	7.326	-0.09503	7.41130	0.0
35.5694	69.6296	2.82	-0.23	10.00	-20.00	7.326	-0.09761	7.41127	0.0
35.5894	69.6296	2.82	-0.23	10.00	-20.00	7.326	-0.10020	7.41124	0.0
35.6094	69.6296	2.82	-0.23	10.00	-20.00	7.326	-0.10279	7.41120	2.0
35.6294	69.6296	2.82	-0.23	10.00	-20.00	7.326	-0.10537	7.41116	0.0