File: Data/Omega/1.5deg-2.0deg-rsm-2h30mins_11358-annealed_004_w-scans.dat
# filename: 1.5deg-2.0deg-rsm-2h30mins_11358-annealed_004.dat
# reflection: (004)
# type: rotated into a series of omega scans
# x-axis: Omega_2Theta
#
# Omega	2Theta	Phi  	Chi   	X    	Y    	Z    	q_para	q_perp	Intensity
# [deg]	[deg] 	[deg]	[deg] 	[mm] 	[mm] 	[mm] 	[nm-1]	[nm-1]	[counts/s]
32.2167	66.6682	-0.24	0.31	0.00	-23.01	7.396	0.13912	7.13267	0.0
32.2367	66.6682	-0.24	0.31	0.00	-23.01	7.396	0.13663	7.13271	0.0
32.2567	66.6682	-0.24	0.31	0.00	-23.01	7.396	0.13414	7.13276	0.0
32.2767	66.6682	-0.24	0.31	0.00	-23.01	7.396	0.13165	7.13281	2.0
32.2967	66.6682	-0.24	0.31	0.00	-23.01	7.396	0.12916	7.13285	0.0
32.3167	66.6682	-0.24	0.31	0.00	-23.01	7.396	0.12667	7.13290	0.0
32.3367	66.6682	-0.24	0.31	0.00	-23.01	7.396	0.12418	7.13294	0.0
32.3567	66.6682	-0.24	0.31	0.00	-23.01	7.396	0.12169	7.13298	0.0
32.3767	66.6682	-0.24	0.31	0.00	-23.01	7.396	0.11920	7.13303	2.0
32.3967	66.6682	-0.24	0.31	0.00	-23.01	7.396	0.11671	7.13307	0.0
32.4167	66.6682	-0.24	0.31	0.00	-23.01	7.396	0.11422	7.13311	4.0
32.4367	66.6682	-0.24	0.31	0.00	-23.01	7.396	0.11173	7.13315	6.0
32.4567	66.6682	-0.24	0.31	0.00	-23.01	7.396	0.10924	7.13319	0.0
32.4767	66.6682	-0.24	0.31	0.00	-23.01	7.396	0.10675	7.13322	0.0
32.4967	66.6682	-0.24	0.31	0.00	-23.01	7.396	0.10426	7.13326	2.0
32.5167	66.6682	-0.24	0.31	0.00	-23.01	7.396	0.10177	7.13330	2.0
32.5367	66.6682	-0.24	0.31	0.00	-23.01	7.396	0.09928	7.13333	2.0
32.5567	66.6682	-0.24	0.31	0.00	-23.01	7.396	0.09679	7.13337	2.0
32.5767	66.6682	-0.24	0.31	0.00	-23.01	7.396	0.09430	7.13340	2.0
32.5967	66.6682	-0.24	0.31	0.00	-23.01	7.396	0.09181	7.13343	0.0
32.6167	66.6682	-0.24	0.31	0.00	-23.01	7.396	0.08932	7.13346	2.0
32.6367	66.6682	-0.24	0.31	0.00	-23.01	7.396	0.08683	7.13349	0.0
32.6567	66.6682	-0.24	0.31	0.00	-23.01	7.396	0.08434	7.13352	0.0
32.6767	66.6682	-0.24	0.31	0.00	-23.01	7.396	0.08185	7.13355	0.0
32.6967	66.6682	-0.24	0.31	0.00	-23.01	7.396	0.07936	7.13358	2.0
32.7167	66.6682	-0.24	0.31	0.00	-23.01	7.396	0.07687	7.13361	4.0
32.7367	66.6682	-0.24	0.31	0.00	-23.01	7.396	0.07438	7.13363	0.0
32.7567	66.6682	-0.24	0.31	0.00	-23.01	7.396	0.07189	7.13366	0.0
32.7767	66.6682	-0.24	0.31	0.00	-23.01	7.396	0.06940	7.13368	0.0
32.7967	66.6682	-0.24	0.31	0.00	-23.01	7.396	0.06691	7.13371	0.0
32.8167	66.6682	-0.24	0.31	0.00	-23.01	7.396	0.06442	7.13373	0.0
32.8367	66.6682	-0.24	0.31	0.00	-23.01	7.396	0.06193	7.13375	2.0
32.8567	66.6682	-0.24	0.31	0.00	-23.01	7.396	0.05944	7.13377	2.0
32.8767	66.6682	-0.24	0.31	0.00	-23.01	7.396	0.05695	7.13379	2.0
32.8967	66.6682	-0.24	0.31	0.00	-23.01	7.396	0.05446	7.13381	0.0
32.9167	66.6682	-0.24	0.31	0.00	-23.01	7.396	0.05197	7.13383	0.0
32.9367	66.6682	-0.24	0.31	0.00	-23.01	7.396	0.04948	7.13385	6.0
32.9567	66.6682	-0.24	0.31	0.00	-23.01	7.396	0.04699	7.13387	2.0
32.9767	66.6682	-0.24	0.31	0.00	-23.01	7.396	0.04450	7.13388	0.0
32.9967	66.6682	-0.24	0.31	0.00	-23.01	7.396	0.04201	7.13390	0.0
33.0167	66.6682	-0.24	0.31	0.00	-23.01	7.396	0.03952	7.13391	0.0
33.0367	66.6682	-0.24	0.31	0.00	-23.01	7.396	0.03703	7.13393	0.0
33.0567	66.6682	-0.24	0.31	0.00	-23.01	7.396	0.03454	7.13394	2.0
33.0767	66.6682	-0.24	0.31	0.00	-23.01	7.396	0.03205	7.13395	2.0
33.0967	66.6682	-0.24	0.31	0.00	-23.01	7.396	0.02956	7.13396	2.0
33.1167	66.6682	-0.24	0.31	0.00	-23.01	7.396	0.02707	7.13397	0.0
33.1367	66.6682	-0.24	0.31	0.00	-23.01	7.396	0.02458	7.13398	2.0
33.1567	66.6682	-0.24	0.31	0.00	-23.01	7.396	0.02209	7.13399	2.0
33.1767	66.6682	-0.24	0.31	0.00	-23.01	7.396	0.01960	7.13400	0.0
33.1967	66.6682	-0.24	0.31	0.00	-23.01	7.396	0.01711	7.13400	4.0
33.2167	66.6682	-0.24	0.31	0.00	-23.01	7.396	0.01462	7.13401	0.0
33.2367	66.6682	-0.24	0.31	0.00	-23.01	7.396	0.01213	7.13401	2.0
33.2567	66.6682	-0.24	0.31	0.00	-23.01	7.396	0.00964	7.13402	0.0
33.2767	66.6682	-0.24	0.31	0.00	-23.01	7.396	0.00715	7.13402	0.0
33.2967	66.6682	-0.24	0.31	0.00	-23.01	7.396	0.00466	7.13402	2.0
33.3167	66.6682	-0.24	0.31	0.00	-23.01	7.396	0.00217	7.13402	0.0
33.3367	66.6682	-0.24	0.31	0.00	-23.01	7.396	-0.00032	7.13402	0.0
33.3567	66.6682	-0.24	0.31	0.00	-23.01	7.396	-0.00281	7.13402	4.0
33.3767	66.6682	-0.24	0.31	0.00	-23.01	7.396	-0.00530	7.13402	2.0
33.3967	66.6682	-0.24	0.31	0.00	-23.01	7.396	-0.00779	7.13402	0.0
33.4167	66.6682	-0.24	0.31	0.00	-23.01	7.396	-0.01028	7.13401	2.0
33.4367	66.6682	-0.24	0.31	0.00	-23.01	7.396	-0.01277	7.13401	2.0
33.4567	66.6682	-0.24	0.31	0.00	-23.01	7.396	-0.01527	7.13401	0.0
33.4767	66.6682	-0.24	0.31	0.00	-23.01	7.396	-0.01776	7.13400	0.0
33.4967	66.6682	-0.24	0.31	0.00	-23.01	7.396	-0.02025	7.13399	2.0
33.5167	66.6682	-0.24	0.31	0.00	-23.01	7.396	-0.02274	7.13399	2.0
33.5367	66.6682	-0.24	0.31	0.00	-23.01	7.396	-0.02523	7.13398	2.0
33.5567	66.6682	-0.24	0.31	0.00	-23.01	7.396	-0.02772	7.13397	0.0
33.5767	66.6682	-0.24	0.31	0.00	-23.01	7.396	-0.03021	7.13396	2.0
33.5967	66.6682	-0.24	0.31	0.00	-23.01	7.396	-0.03270	7.13395	2.0
33.6167	66.6682	-0.24	0.31	0.00	-23.01	7.396	-0.03519	7.13394	0.0
33.6367	66.6682	-0.24	0.31	0.00	-23.01	7.396	-0.03768	7.13392	2.0
33.6567	66.6682	-0.24	0.31	0.00	-23.01	7.396	-0.04017	7.13391	2.0
33.6767	66.6682	-0.24	0.31	0.00	-23.01	7.396	-0.04266	7.13389	2.0
33.6967	66.6682	-0.24	0.31	0.00	-23.01	7.396	-0.04515	7.13388	0.0
33.7167	66.6682	-0.24	0.31	0.00	-23.01	7.396	-0.04764	7.13386	0.0
33.7367	66.6682	-0.24	0.31	0.00	-23.01	7.396	-0.05013	7.13385	0.0
33.7567	66.6682	-0.24	0.31	0.00	-23.01	7.396	-0.05262	7.13383	4.0
33.7767	66.6682	-0.24	0.31	0.00	-23.01	7.396	-0.05511	7.13381	2.0
33.7967	66.6682	-0.24	0.31	0.00	-23.01	7.396	-0.05760	7.13379	0.0
33.8167	66.6682	-0.24	0.31	0.00	-23.01	7.396	-0.06009	7.13377	2.0
33.8367	66.6682	-0.24	0.31	0.00	-23.01	7.396	-0.06258	7.13375	0.0
33.8567	66.6682	-0.24	0.31	0.00	-23.01	7.396	-0.06507	7.13373	0.0
33.8767	66.6682	-0.24	0.31	0.00	-23.01	7.396	-0.06756	7.13370	2.0
33.8967	66.6682	-0.24	0.31	0.00	-23.01	7.396	-0.07005	7.13368	0.0
33.9167	66.6682	-0.24	0.31	0.00	-23.01	7.396	-0.07254	7.13365	0.0
33.9367	66.6682	-0.24	0.31	0.00	-23.01	7.396	-0.07503	7.13363	0.0
33.9567	66.6682	-0.24	0.31	0.00	-23.01	7.396	-0.07752	7.13360	0.0
33.9767	66.6682	-0.24	0.31	0.00	-23.01	7.396	-0.08001	7.13357	0.0
33.9967	66.6682	-0.24	0.31	0.00	-23.01	7.396	-0.08250	7.13354	0.0
34.0167	66.6682	-0.24	0.31	0.00	-23.01	7.396	-0.08499	7.13352	0.0
34.0367	66.6682	-0.24	0.31	0.00	-23.01	7.396	-0.08748	7.13349	0.0
34.0567	66.6682	-0.24	0.31	0.00	-23.01	7.396	-0.08997	7.13345	4.0
34.0767	66.6682	-0.24	0.31	0.00	-23.01	7.396	-0.09246	7.13342	2.0
34.0967	66.6682	-0.24	0.31	0.00	-23.01	7.396	-0.09495	7.13339	0.0
34.1167	66.6682	-0.24	0.31	0.00	-23.01	7.396	-0.09744	7.13336	2.0
34.1367	66.6682	-0.24	0.31	0.00	-23.01	7.396	-0.09993	7.13332	4.0
34.1567	66.6682	-0.24	0.31	0.00	-23.01	7.396	-0.10242	7.13329	2.0
34.1767	66.6682	-0.24	0.31	0.00	-23.01	7.396	-0.10491	7.13325	2.0
34.1967	66.6682	-0.24	0.31	0.00	-23.01	7.396	-0.10740	7.13321	2.0
34.2167	66.6682	-0.24	0.31	0.00	-23.01	7.396	-0.10989	7.13318	2.0

32.2267	66.6882	-0.24	0.31	0.00	-23.01	7.396	0.13916	7.13456	2.0
32.2467	66.6882	-0.24	0.31	0.00	-23.01	7.396	0.13667	7.13461	0.0
32.2667	66.6882	-0.24	0.31	0.00	-23.01	7.396	0.13418	7.13465	2.0
32.2867	66.6882	-0.24	0.31	0.00	-23.01	7.396	0.13169	7.13470	0.0
32.3067	66.6882	-0.24	0.31	0.00	-23.01	7.396	0.12920	7.13475	2.0
32.3267	66.6882	-0.24	0.31	0.00	-23.01	7.396	0.12671	7.13479	2.0
32.3467	66.6882	-0.24	0.31	0.00	-23.01	7.396	0.12422	7.13483	2.0
32.3667	66.6882	-0.24	0.31	0.00	-23.01	7.396	0.12172	7.13488	0.0
32.3867	66.6882	-0.24	0.31	0.00	-23.01	7.396	0.11923	7.13492	2.0
32.4067	66.6882	-0.24	0.31	0.00	-23.01	7.396	0.11674	7.13496	0.0
32.4267	66.6882	-0.24	0.31	0.00	-23.01	7.396	0.11425	7.13500	6.0
32.4467	66.6882	-0.24	0.31	0.00	-23.01	7.396	0.11176	7.13504	2.0
32.4667	66.6882	-0.24	0.31	0.00	-23.01	7.396	0.10927	7.13508	2.0
32.4867	66.6882	-0.24	0.31	0.00	-23.01	7.396	0.10678	7.13512	0.0
32.5067	66.6882	-0.24	0.31	0.00	-23.01	7.396	0.10429	7.13515	2.0
32.5267	66.6882	-0.24	0.31	0.00	-23.01	7.396	0.10180	7.13519	0.0
32.5467	66.6882	-0.24	0.31	0.00	-23.01	7.396	0.09931	7.13522	4.0
32.5667	66.6882	-0.24	0.31	0.00	-23.01	7.396	0.09682	7.13526	4.0
32.5867	66.6882	-0.24	0.31	0.00	-23.01	7.396	0.09433	7.13529	2.0
32.6067	66.6882	-0.24	0.31	0.00	-23.01	7.396	0.09184	7.13532	2.0
32.6267	66.6882	-0.24	0.31	0.00	-23.01	7.396	0.08935	7.13536	0.0
32.6467	66.6882	-0.24	0.31	0.00	-23.01	7.396	0.08686	7.13539	2.0
32.6667	66.6882	-0.24	0.31	0.00	-23.01	7.396	0.08436	7.13542	0.0
32.6867	66.6882	-0.24	0.31	0.00	-23.01	7.396	0.08187	7.13545	2.0
32.7067	66.6882	-0.24	0.31	0.00	-23.01	7.396	0.07938	7.13547	4.0
32.7267	66.6882	-0.24	0.31	0.00	-23.01	7.396	0.07689	7.13550	0.0
32.7467	66.6882	-0.24	0.31	0.00	-23.01	7.396	0.07440	7.13553	0.0
32.7667	66.6882	-0.24	0.31	0.00	-23.01	7.396	0.07191	7.13555	2.0
32.7867	66.6882	-0.24	0.31	0.00	-23.01	7.396	0.06942	7.13558	2.0
32.8067	66.6882	-0.24	0.31	0.00	-23.01	7.396	0.06693	7.13560	0.0
32.8267	66.6882	-0.24	0.31	0.00	-23.01	7.396	0.06444	7.13562	0.0
32.8467	66.6882	-0.24	0.31	0.00	-23.01	7.396	0.06195	7.13565	2.0
32.8667	66.6882	-0.24	0.31	0.00	-23.01	7.396	0.05946	7.13567	0.0
32.8867	66.6882	-0.24	0.31	0.00	-23.01	7.396	0.05697	7.13569	0.0
32.9067	66.6882	-0.24	0.31	0.00	-23.01	7.396	0.05448	7.13571	2.0
32.9267	66.6882	-0.24	0.31	0.00	-23.01	7.396	0.05198	7.13573	2.0
32.9467	66.6882	-0.24	0.31	0.00	-23.01	7.396	0.04949	7.13574	4.0
32.9667	66.6882	-0.24	0.31	0.00	-23.01	7.396	0.04700	7.13576	0.0
32.9867	66.6882	-0.24	0.31	0.00	-23.01	7.396	0.04451	7.13578	0.0
33.0067	66.6882	-0.24	0.31	0.00	-23.01	7.396	0.04202	7.13579	4.0
33.0267	66.6882	-0.24	0.31	0.00	-23.01	7.396	0.03953	7.13581	6.0
33.0467	66.6882	-0.24	0.31	0.00	-23.01	7.396	0.03704	7.13582	4.0
33.0667	66.6882	-0.24	0.31	0.00	-23.01	7.396	0.03455	7.13583	0.0
33.0867	66.6882	-0.24	0.31	0.00	-23.01	7.396	0.03206	7.13584	0.0
33.1067	66.6882	-0.24	0.31	0.00	-23.01	7.396	0.02957	7.13585	2.0
33.1267	66.6882	-0.24	0.31	0.00	-23.01	7.396	0.02708	7.13586	4.0
33.1467	66.6882	-0.24	0.31	0.00	-23.01	7.396	0.02459	7.13587	0.0
33.1667	66.6882	-0.24	0.31	0.00	-23.01	7.396	0.02209	7.13588	0.0
33.1867	66.6882	-0.24	0.31	0.00	-23.01	7.396	0.01960	7.13589	0.0
33.2067	66.6882	-0.24	0.31	0.00	-23.01	7.396	0.01711	7.13589	0.0
33.2267	66.6882	-0.24	0.31	0.00	-23.01	7.396	0.01462	7.13590	0.0
33.2467	66.6882	-0.24	0.31	0.00	-23.01	7.396	0.01213	7.13590	2.0
33.2667	66.6882	-0.24	0.31	0.00	-23.01	7.396	0.00964	7.13591	0.0
33.2867	66.6882	-0.24	0.31	0.00	-23.01	7.396	0.00715	7.13591	4.0
33.3067	66.6882	-0.24	0.31	0.00	-23.01	7.396	0.00466	7.13591	4.0
33.3267	66.6882	-0.24	0.31	0.00	-23.01	7.396	0.00217	7.13591	0.0
33.3467	66.6882	-0.24	0.31	0.00	-23.01	7.396	-0.00032	7.13591	0.0
33.3667	66.6882	-0.24	0.31	0.00	-23.01	7.396	-0.00281	7.13591	0.0
33.3867	66.6882	-0.24	0.31	0.00	-23.01	7.396	-0.00531	7.13591	0.0
33.4067	66.6882	-0.24	0.31	0.00	-23.01	7.396	-0.00780	7.13591	0.0
33.4267	66.6882	-0.24	0.31	0.00	-23.01	7.396	-0.01029	7.13591	4.0
33.4467	66.6882	-0.24	0.31	0.00	-23.01	7.396	-0.01278	7.13590	0.0
33.4667	66.6882	-0.24	0.31	0.00	-23.01	7.396	-0.01527	7.13590	0.0
33.4867	66.6882	-0.24	0.31	0.00	-23.01	7.396	-0.01776	7.13589	0.0
33.5067	66.6882	-0.24	0.31	0.00	-23.01	7.396	-0.02025	7.13589	2.0
33.5267	66.6882	-0.24	0.31	0.00	-23.01	7.396	-0.02274	7.13588	4.0
33.5467	66.6882	-0.24	0.31	0.00	-23.01	7.396	-0.02523	7.13587	2.0
33.5667	66.6882	-0.24	0.31	0.00	-23.01	7.396	-0.02772	7.13586	0.0
33.5867	66.6882	-0.24	0.31	0.00	-23.01	7.396	-0.03021	7.13585	0.0
33.6067	66.6882	-0.24	0.31	0.00	-23.01	7.396	-0.03271	7.13584	4.0
33.6267	66.6882	-0.24	0.31	0.00	-23.01	7.396	-0.03520	7.13583	4.0
33.6467	66.6882	-0.24	0.31	0.00	-23.01	7.396	-0.03769	7.13582	2.0
33.6667	66.6882	-0.24	0.31	0.00	-23.01	7.396	-0.04018	7.13580	0.0
33.6867	66.6882	-0.24	0.31	0.00	-23.01	7.396	-0.04267	7.13579	2.0
33.7067	66.6882	-0.24	0.31	0.00	-23.01	7.396	-0.04516	7.13577	0.0
33.7267	66.6882	-0.24	0.31	0.00	-23.01	7.396	-0.04765	7.13576	2.0
33.7467	66.6882	-0.24	0.31	0.00	-23.01	7.396	-0.05014	7.13574	2.0
33.7667	66.6882	-0.24	0.31	0.00	-23.01	7.396	-0.05263	7.13572	0.0
33.7867	66.6882	-0.24	0.31	0.00	-23.01	7.396	-0.05512	7.13570	0.0
33.8067	66.6882	-0.24	0.31	0.00	-23.01	7.396	-0.05761	7.13568	0.0
33.8267	66.6882	-0.24	0.31	0.00	-23.01	7.396	-0.06010	7.13566	2.0
33.8467	66.6882	-0.24	0.31	0.00	-23.01	7.396	-0.06260	7.13564	0.0
33.8667	66.6882	-0.24	0.31	0.00	-23.01	7.396	-0.06509	7.13562	0.0
33.8867	66.6882	-0.24	0.31	0.00	-23.01	7.396	-0.06758	7.13559	0.0
33.9067	66.6882	-0.24	0.31	0.00	-23.01	7.396	-0.07007	7.13557	0.0
33.9267	66.6882	-0.24	0.31	0.00	-23.01	7.396	-0.07256	7.13555	2.0
33.9467	66.6882	-0.24	0.31	0.00	-23.01	7.396	-0.07505	7.13552	2.0
33.9667	66.6882	-0.24	0.31	0.00	-23.01	7.396	-0.07754	7.13549	2.0
33.9867	66.6882	-0.24	0.31	0.00	-23.01	7.396	-0.08003	7.13547	0.0
34.0067	66.6882	-0.24	0.31	0.00	-23.01	7.396	-0.08252	7.13544	0.0
34.0267	66.6882	-0.24	0.31	0.00	-23.01	7.396	-0.08501	7.13541	2.0
34.0467	66.6882	-0.24	0.31	0.00	-23.01	7.396	-0.08750	7.13538	2.0
34.0667	66.6882	-0.24	0.31	0.00	-23.01	7.396	-0.08999	7.13535	0.0
34.0867	66.6882	-0.24	0.31	0.00	-23.01	7.396	-0.09248	7.13532	0.0
34.1067	66.6882	-0.24	0.31	0.00	-23.01	7.396	-0.09498	7.13528	0.0
34.1267	66.6882	-0.24	0.31	0.00	-23.01	7.396	-0.09747	7.13525	2.0
34.1467	66.6882	-0.24	0.31	0.00	-23.01	7.396	-0.09996	7.13521	0.0
34.1667	66.6882	-0.24	0.31	0.00	-23.01	7.396	-0.10245	7.13518	0.0
34.1867	66.6882	-0.24	0.31	0.00	-23.01	7.396	-0.10494	7.13514	2.0
34.2067	66.6882	-0.24	0.31	0.00	-23.01	7.396	-0.10743	7.13511	2.0
34.2267	66.6882	-0.24	0.31	0.00	-23.01	7.396	-0.10992	7.13507	2.0

32.2367	66.7082	-0.24	0.31	0.00	-23.01	7.396	0.13919	7.13645	4.0
32.2567	66.7082	-0.24	0.31	0.00	-23.01	7.396	0.13670	7.13650	0.0
32.2767	66.7082	-0.24	0.31	0.00	-23.01	7.396	0.13421	7.13655	0.0
32.2967	66.7082	-0.24	0.31	0.00	-23.01	7.396	0.13172	7.13659	2.0
32.3167	66.7082	-0.24	0.31	0.00	-23.01	7.396	0.12923	7.13664	0.0
32.3367	66.7082	-0.24	0.31	0.00	-23.01	7.396	0.12674	7.13668	2.0
32.3567	66.7082	-0.24	0.31	0.00	-23.01	7.396	0.12425	7.13673	4.0
32.3767	66.7082	-0.24	0.31	0.00	-23.01	7.396	0.12176	7.13677	6.0
32.3967	66.7082	-0.24	0.31	0.00	-23.01	7.396	0.11927	7.13681	2.0
32.4167	66.7082	-0.24	0.31	0.00	-23.01	7.396	0.11677	7.13685	0.0
32.4367	66.7082	-0.24	0.31	0.00	-23.01	7.396	0.11428	7.13689	0.0
32.4567	66.7082	-0.24	0.31	0.00	-23.01	7.396	0.11179	7.13693	0.0
32.4767	66.7082	-0.24	0.31	0.00	-23.01	7.396	0.10930	7.13697	2.0
32.4967	66.7082	-0.24	0.31	0.00	-23.01	7.396	0.10681	7.13701	0.0
32.5167	66.7082	-0.24	0.31	0.00	-23.01	7.396	0.10432	7.13705	0.0
32.5367	66.7082	-0.24	0.31	0.00	-23.01	7.396	0.10183	7.13708	2.0
32.5567	66.7082	-0.24	0.31	0.00	-23.01	7.396	0.09934	7.13712	0.0
32.5767	66.7082	-0.24	0.31	0.00	-23.01	7.396	0.09684	7.13715	2.0
32.5967	66.7082	-0.24	0.31	0.00	-23.01	7.396	0.09435	7.13718	0.0
32.6167	66.7082	-0.24	0.31	0.00	-23.01	7.396	0.09186	7.13722	0.0
32.6367	66.7082	-0.24	0.31	0.00	-23.01	7.396	0.08937	7.13725	0.0
32.6567	66.7082	-0.24	0.31	0.00	-23.01	7.396	0.08688	7.13728	0.0
32.6767	66.7082	-0.24	0.31	0.00	-23.01	7.396	0.08439	7.13731	0.0
32.6967	66.7082	-0.24	0.31	0.00	-23.01	7.396	0.08190	7.13734	0.0
32.7167	66.7082	-0.24	0.31	0.00	-23.01	7.396	0.07940	7.13737	0.0
32.7367	66.7082	-0.24	0.31	0.00	-23.01	7.396	0.07691	7.13739	2.0
32.7567	66.7082	-0.24	0.31	0.00	-23.01	7.396	0.07442	7.13742	2.0
32.7767	66.7082	-0.24	0.31	0.00	-23.01	7.396	0.07193	7.13745	0.0
32.7967	66.7082	-0.24	0.31	0.00	-23.01	7.396	0.06944	7.13747	0.0
32.8167	66.7082	-0.24	0.31	0.00	-23.01	7.396	0.06695	7.13749	0.0
32.8367	66.7082	-0.24	0.31	0.00	-23.01	7.396	0.06446	7.13752	0.0
32.8567	66.7082	-0.24	0.31	0.00	-23.01	7.396	0.06196	7.13754	2.0
32.8767	66.7082	-0.24	0.31	0.00	-23.01	7.396	0.05947	7.13756	0.0
32.8967	66.7082	-0.24	0.31	0.00	-23.01	7.396	0.05698	7.13758	0.0
32.9167	66.7082	-0.24	0.31	0.00	-23.01	7.396	0.05449	7.13760	2.0
32.9367	66.7082	-0.24	0.31	0.00	-23.01	7.396	0.05200	7.13762	2.0
32.9567	66.7082	-0.24	0.31	0.00	-23.01	7.396	0.04951	7.13764	0.0
32.9767	66.7082	-0.24	0.31	0.00	-23.01	7.396	0.04702	7.13765	0.0
32.9967	66.7082	-0.24	0.31	0.00	-23.01	7.396	0.04452	7.13767	2.0
33.0167	66.7082	-0.24	0.31	0.00	-23.01	7.396	0.04203	7.13768	0.0
33.0367	66.7082	-0.24	0.31	0.00	-23.01	7.396	0.03954	7.13770	0.0
33.0567	66.7082	-0.24	0.31	0.00	-23.01	7.396	0.03705	7.13771	0.0
33.0767	66.7082	-0.24	0.31	0.00	-23.01	7.396	0.03456	7.13772	2.0
33.0967	66.7082	-0.24	0.31	0.00	-23.01	7.396	0.03207	7.13774	2.0
33.1167	66.7082	-0.24	0.31	0.00	-23.01	7.396	0.02957	7.13775	0.0
33.1367	66.7082	-0.24	0.31	0.00	-23.01	7.396	0.02708	7.13776	0.0
33.1567	66.7082	-0.24	0.31	0.00	-23.01	7.396	0.02459	7.13777	2.0
33.1767	66.7082	-0.24	0.31	0.00	-23.01	7.396	0.02210	7.13777	0.0
33.1967	66.7082	-0.24	0.31	0.00	-23.01	7.396	0.01961	7.13778	2.0
33.2167	66.7082	-0.24	0.31	0.00	-23.01	7.396	0.01712	7.13779	0.0
33.2367	66.7082	-0.24	0.31	0.00	-23.01	7.396	0.01463	7.13779	8.0
33.2567	66.7082	-0.24	0.31	0.00	-23.01	7.396	0.01213	7.13780	0.0
33.2767	66.7082	-0.24	0.31	0.00	-23.01	7.396	0.00964	7.13780	6.0
33.2967	66.7082	-0.24	0.31	0.00	-23.01	7.396	0.00715	7.13780	4.0
33.3167	66.7082	-0.24	0.31	0.00	-23.01	7.396	0.00466	7.13781	0.0
33.3367	66.7082	-0.24	0.31	0.00	-23.01	7.396	0.00217	7.13781	2.0
33.3567	66.7082	-0.24	0.31	0.00	-23.01	7.396	-0.00032	7.13781	2.0
33.3767	66.7082	-0.24	0.31	0.00	-23.01	7.396	-0.00282	7.13781	0.0
33.3967	66.7082	-0.24	0.31	0.00	-23.01	7.396	-0.00531	7.13781	4.0
33.4167	66.7082	-0.24	0.31	0.00	-23.01	7.396	-0.00780	7.13780	4.0
33.4367	66.7082	-0.24	0.31	0.00	-23.01	7.396	-0.01029	7.13780	2.0
33.4567	66.7082	-0.24	0.31	0.00	-23.01	7.396	-0.01278	7.13780	0.0
33.4767	66.7082	-0.24	0.31	0.00	-23.01	7.396	-0.01527	7.13779	2.0
33.4967	66.7082	-0.24	0.31	0.00	-23.01	7.396	-0.01776	7.13779	2.0
33.5167	66.7082	-0.24	0.31	0.00	-23.01	7.396	-0.02026	7.13778	0.0
33.5367	66.7082	-0.24	0.31	0.00	-23.01	7.396	-0.02275	7.13777	0.0
33.5567	66.7082	-0.24	0.31	0.00	-23.01	7.396	-0.02524	7.13776	0.0
33.5767	66.7082	-0.24	0.31	0.00	-23.01	7.396	-0.02773	7.13775	2.0
33.5967	66.7082	-0.24	0.31	0.00	-23.01	7.396	-0.03022	7.13774	0.0
33.6167	66.7082	-0.24	0.31	0.00	-23.01	7.396	-0.03271	7.13773	0.0
33.6367	66.7082	-0.24	0.31	0.00	-23.01	7.396	-0.03521	7.13772	2.0
33.6567	66.7082	-0.24	0.31	0.00	-23.01	7.396	-0.03770	7.13771	0.0
33.6767	66.7082	-0.24	0.31	0.00	-23.01	7.396	-0.04019	7.13769	2.0
33.6967	66.7082	-0.24	0.31	0.00	-23.01	7.396	-0.04268	7.13768	0.0
33.7167	66.7082	-0.24	0.31	0.00	-23.01	7.396	-0.04517	7.13766	0.0
33.7367	66.7082	-0.24	0.31	0.00	-23.01	7.396	-0.04766	7.13765	6.0
33.7567	66.7082	-0.24	0.31	0.00	-23.01	7.396	-0.05015	7.13763	0.0
33.7767	66.7082	-0.24	0.31	0.00	-23.01	7.396	-0.05265	7.13761	4.0
33.7967	66.7082	-0.24	0.31	0.00	-23.01	7.396	-0.05514	7.13759	4.0
33.8167	66.7082	-0.24	0.31	0.00	-23.01	7.396	-0.05763	7.13758	0.0
33.8367	66.7082	-0.24	0.31	0.00	-23.01	7.396	-0.06012	7.13755	2.0
33.8567	66.7082	-0.24	0.31	0.00	-23.01	7.396	-0.06261	7.13753	0.0
33.8767	66.7082	-0.24	0.31	0.00	-23.01	7.396	-0.06510	7.13751	0.0
33.8967	66.7082	-0.24	0.31	0.00	-23.01	7.396	-0.06760	7.13749	0.0
33.9167	66.7082	-0.24	0.31	0.00	-23.01	7.396	-0.07009	7.13746	2.0
33.9367	66.7082	-0.24	0.31	0.00	-23.01	7.396	-0.07258	7.13744	2.0
33.9567	66.7082	-0.24	0.31	0.00	-23.01	7.396	-0.07507	7.13741	2.0
33.9767	66.7082	-0.24	0.31	0.00	-23.01	7.396	-0.07756	7.13739	2.0
33.9967	66.7082	-0.24	0.31	0.00	-23.01	7.396	-0.08005	7.13736	2.0
34.0167	66.7082	-0.24	0.31	0.00	-23.01	7.396	-0.08254	7.13733	0.0
34.0367	66.7082	-0.24	0.31	0.00	-23.01	7.396	-0.08504	7.13730	0.0
34.0567	66.7082	-0.24	0.31	0.00	-23.01	7.396	-0.08753	7.13727	0.0
34.0767	66.7082	-0.24	0.31	0.00	-23.01	7.396	-0.09002	7.13724	0.0
34.0967	66.7082	-0.24	0.31	0.00	-23.01	7.396	-0.09251	7.13721	0.0
34.1167	66.7082	-0.24	0.31	0.00	-23.01	7.396	-0.09500	7.13718	0.0
34.1367	66.7082	-0.24	0.31	0.00	-23.01	7.396	-0.09749	7.13714	4.0
34.1567	66.7082	-0.24	0.31	0.00	-23.01	7.396	-0.09998	7.13711	2.0
34.1767	66.7082	-0.24	0.31	0.00	-23.01	7.396	-0.10247	7.13707	0.0
34.1967	66.7082	-0.24	0.31	0.00	-23.01	7.396	-0.10497	7.13704	2.0
34.2167	66.7082	-0.24	0.31	0.00	-23.01	7.396	-0.10746	7.13700	4.0
34.2367	66.7082	-0.24	0.31	0.00	-23.01	7.396	-0.10995	7.13696	0.0

32.2467	66.7282	-0.24	0.31	0.00	-23.01	7.396	0.13923	7.13834	2.0
32.2667	66.7282	-0.24	0.31	0.00	-23.01	7.396	0.13674	7.13839	0.0
32.2867	66.7282	-0.24	0.31	0.00	-23.01	7.396	0.13425	7.13844	2.0
32.3067	66.7282	-0.24	0.31	0.00	-23.01	7.396	0.13176	7.13848	2.0
32.3267	66.7282	-0.24	0.31	0.00	-23.01	7.396	0.12926	7.13853	2.0
32.3467	66.7282	-0.24	0.31	0.00	-23.01	7.396	0.12677	7.13857	4.0
32.3667	66.7282	-0.24	0.31	0.00	-23.01	7.396	0.12428	7.13862	0.0
32.3867	66.7282	-0.24	0.31	0.00	-23.01	7.396	0.12179	7.13866	0.0
32.4067	66.7282	-0.24	0.31	0.00	-23.01	7.396	0.11930	7.13870	0.0
32.4267	66.7282	-0.24	0.31	0.00	-23.01	7.396	0.11681	7.13874	0.0
32.4467	66.7282	-0.24	0.31	0.00	-23.01	7.396	0.11431	7.13878	2.0
32.4667	66.7282	-0.24	0.31	0.00	-23.01	7.396	0.11182	7.13882	2.0
32.4867	66.7282	-0.24	0.31	0.00	-23.01	7.396	0.10933	7.13886	2.0
32.5067	66.7282	-0.24	0.31	0.00	-23.01	7.396	0.10684	7.13890	0.0
32.5267	66.7282	-0.24	0.31	0.00	-23.01	7.396	0.10435	7.13894	2.0
32.5467	66.7282	-0.24	0.31	0.00	-23.01	7.396	0.10185	7.13897	2.0
32.5667	66.7282	-0.24	0.31	0.00	-23.01	7.396	0.09936	7.13901	0.0
32.5867	66.7282	-0.24	0.31	0.00	-23.01	7.396	0.09687	7.13904	2.0
32.6067	66.7282	-0.24	0.31	0.00	-23.01	7.396	0.09438	7.13908	0.0
32.6267	66.7282	-0.24	0.31	0.00	-23.01	7.396	0.09189	7.13911	0.0
32.6467	66.7282	-0.24	0.31	0.00	-23.01	7.396	0.08939	7.13914	0.0
32.6667	66.7282	-0.24	0.31	0.00	-23.01	7.396	0.08690	7.13917	0.0
32.6867	66.7282	-0.24	0.31	0.00	-23.01	7.396	0.08441	7.13920	0.0
32.7067	66.7282	-0.24	0.31	0.00	-23.01	7.396	0.08192	7.13923	0.0
32.7267	66.7282	-0.24	0.31	0.00	-23.01	7.396	0.07943	7.13926	0.0
32.7467	66.7282	-0.24	0.31	0.00	-23.01	7.396	0.07693	7.13929	2.0
32.7667	66.7282	-0.24	0.31	0.00	-23.01	7.396	0.07444	7.13931	4.0
32.7867	66.7282	-0.24	0.31	0.00	-23.01	7.396	0.07195	7.13934	0.0
32.8067	66.7282	-0.24	0.31	0.00	-23.01	7.396	0.06946	7.13936	2.0
32.8267	66.7282	-0.24	0.31	0.00	-23.01	7.396	0.06697	7.13939	4.0
32.8467	66.7282	-0.24	0.31	0.00	-23.01	7.396	0.06447	7.13941	0.0
32.8667	66.7282	-0.24	0.31	0.00	-23.01	7.396	0.06198	7.13943	2.0
32.8867	66.7282	-0.24	0.31	0.00	-23.01	7.396	0.05949	7.13945	2.0
32.9067	66.7282	-0.24	0.31	0.00	-23.01	7.396	0.05700	7.13947	0.0
32.9267	66.7282	-0.24	0.31	0.00	-23.01	7.396	0.05450	7.13949	4.0
32.9467	66.7282	-0.24	0.31	0.00	-23.01	7.396	0.05201	7.13951	2.0
32.9667	66.7282	-0.24	0.31	0.00	-23.01	7.396	0.04952	7.13953	2.0
32.9867	66.7282	-0.24	0.31	0.00	-23.01	7.396	0.04703	7.13955	2.0
33.0067	66.7282	-0.24	0.31	0.00	-23.01	7.396	0.04454	7.13956	4.0
33.0267	66.7282	-0.24	0.31	0.00	-23.01	7.396	0.04204	7.13958	0.0
33.0467	66.7282	-0.24	0.31	0.00	-23.01	7.396	0.03955	7.13959	0.0
33.0667	66.7282	-0.24	0.31	0.00	-23.01	7.396	0.03706	7.13960	0.0
33.0867	66.7282	-0.24	0.31	0.00	-23.01	7.396	0.03457	7.13962	0.0
33.1067	66.7282	-0.24	0.31	0.00	-23.01	7.396	0.03207	7.13963	2.0
33.1267	66.7282	-0.24	0.31	0.00	-23.01	7.396	0.02958	7.13964	2.0
33.1467	66.7282	-0.24	0.31	0.00	-23.01	7.396	0.02709	7.13965	2.0
33.1667	66.7282	-0.24	0.31	0.00	-23.01	7.396	0.02460	7.13966	0.0
33.1867	66.7282	-0.24	0.31	0.00	-23.01	7.396	0.02211	7.13967	0.0
33.2067	66.7282	-0.24	0.31	0.00	-23.01	7.396	0.01961	7.13967	2.0
33.2267	66.7282	-0.24	0.31	0.00	-23.01	7.396	0.01712	7.13968	0.0
33.2467	66.7282	-0.24	0.31	0.00	-23.01	7.396	0.01463	7.13969	2.0
33.2667	66.7282	-0.24	0.31	0.00	-23.01	7.396	0.01214	7.13969	2.0
33.2867	66.7282	-0.24	0.31	0.00	-23.01	7.396	0.00964	7.13969	4.0
33.3067	66.7282	-0.24	0.31	0.00	-23.01	7.396	0.00715	7.13970	2.0
33.3267	66.7282	-0.24	0.31	0.00	-23.01	7.396	0.00466	7.13970	4.0
33.3467	66.7282	-0.24	0.31	0.00	-23.01	7.396	0.00217	7.13970	0.0
33.3667	66.7282	-0.24	0.31	0.00	-23.01	7.396	-0.00032	7.13970	0.0
33.3867	66.7282	-0.24	0.31	0.00	-23.01	7.396	-0.00282	7.13970	4.0
33.4067	66.7282	-0.24	0.31	0.00	-23.01	7.396	-0.00531	7.13970	0.0
33.4267	66.7282	-0.24	0.31	0.00	-23.01	7.396	-0.00780	7.13970	4.0
33.4467	66.7282	-0.24	0.31	0.00	-23.01	7.396	-0.01029	7.13969	0.0
33.4667	66.7282	-0.24	0.31	0.00	-23.01	7.396	-0.01279	7.13969	0.0
33.4867	66.7282	-0.24	0.31	0.00	-23.01	7.396	-0.01528	7.13968	2.0
33.5067	66.7282	-0.24	0.31	0.00	-23.01	7.396	-0.01777	7.13968	0.0
33.5267	66.7282	-0.24	0.31	0.00	-23.01	7.396	-0.02026	7.13967	0.0
33.5467	66.7282	-0.24	0.31	0.00	-23.01	7.396	-0.02275	7.13966	0.0
33.5667	66.7282	-0.24	0.31	0.00	-23.01	7.396	-0.02525	7.13966	0.0
33.5867	66.7282	-0.24	0.31	0.00	-23.01	7.396	-0.02774	7.13965	2.0
33.6067	66.7282	-0.24	0.31	0.00	-23.01	7.396	-0.03023	7.13964	0.0
33.6267	66.7282	-0.24	0.31	0.00	-23.01	7.396	-0.03272	7.13963	2.0
33.6467	66.7282	-0.24	0.31	0.00	-23.01	7.396	-0.03522	7.13961	0.0
33.6667	66.7282	-0.24	0.31	0.00	-23.01	7.396	-0.03771	7.13960	2.0
33.6867	66.7282	-0.24	0.31	0.00	-23.01	7.396	-0.04020	7.13959	2.0
33.7067	66.7282	-0.24	0.31	0.00	-23.01	7.396	-0.04269	7.13957	4.0
33.7267	66.7282	-0.24	0.31	0.00	-23.01	7.396	-0.04518	7.13956	2.0
33.7467	66.7282	-0.24	0.31	0.00	-23.01	7.396	-0.04768	7.13954	0.0
33.7667	66.7282	-0.24	0.31	0.00	-23.01	7.396	-0.05017	7.13952	2.0
33.7867	66.7282	-0.24	0.31	0.00	-23.01	7.396	-0.05266	7.13951	4.0
33.8067	66.7282	-0.24	0.31	0.00	-23.01	7.396	-0.05515	7.13949	0.0
33.8267	66.7282	-0.24	0.31	0.00	-23.01	7.396	-0.05764	7.13947	0.0
33.8467	66.7282	-0.24	0.31	0.00	-23.01	7.396	-0.06014	7.13945	2.0
33.8667	66.7282	-0.24	0.31	0.00	-23.01	7.396	-0.06263	7.13943	2.0
33.8867	66.7282	-0.24	0.31	0.00	-23.01	7.396	-0.06512	7.13940	4.0
33.9067	66.7282	-0.24	0.31	0.00	-23.01	7.396	-0.06761	7.13938	6.0
33.9267	66.7282	-0.24	0.31	0.00	-23.01	7.396	-0.07011	7.13936	2.0
33.9467	66.7282	-0.24	0.31	0.00	-23.01	7.396	-0.07260	7.13933	2.0
33.9667	66.7282	-0.24	0.31	0.00	-23.01	7.396	-0.07509	7.13931	2.0
33.9867	66.7282	-0.24	0.31	0.00	-23.01	7.396	-0.07758	7.13928	0.0
34.0067	66.7282	-0.24	0.31	0.00	-23.01	7.396	-0.08007	7.13925	0.0
34.0267	66.7282	-0.24	0.31	0.00	-23.01	7.396	-0.08257	7.13922	4.0
34.0467	66.7282	-0.24	0.31	0.00	-23.01	7.396	-0.08506	7.13919	2.0
34.0667	66.7282	-0.24	0.31	0.00	-23.01	7.396	-0.08755	7.13916	2.0
34.0867	66.7282	-0.24	0.31	0.00	-23.01	7.396	-0.09004	7.13913	2.0
34.1067	66.7282	-0.24	0.31	0.00	-23.01	7.396	-0.09253	7.13910	0.0
34.1267	66.7282	-0.24	0.31	0.00	-23.01	7.396	-0.09503	7.13907	2.0
34.1467	66.7282	-0.24	0.31	0.00	-23.01	7.396	-0.09752	7.13903	2.0
34.1667	66.7282	-0.24	0.31	0.00	-23.01	7.396	-0.10001	7.13900	0.0
34.1867	66.7282	-0.24	0.31	0.00	-23.01	7.396	-0.10250	7.13896	0.0
34.2067	66.7282	-0.24	0.31	0.00	-23.01	7.396	-0.10499	7.13893	0.0
34.2267	66.7282	-0.24	0.31	0.00	-23.01	7.396	-0.10749	7.13889	2.0
34.2467	66.7282	-0.24	0.31	0.00	-23.01	7.396	-0.10998	7.13885	0.0

32.2567	66.7482	-0.24	0.31	0.00	-23.01	7.396	0.13927	7.14023	0.0
32.2767	66.7482	-0.24	0.31	0.00	-23.01	7.396	0.13678	7.14028	0.0
32.2967	66.7482	-0.24	0.31	0.00	-23.01	7.396	0.13428	7.14033	0.0
32.3167	66.7482	-0.24	0.31	0.00	-23.01	7.396	0.13179	7.14038	4.0
32.3367	66.7482	-0.24	0.31	0.00	-23.01	7.396	0.12930	7.14042	2.0
32.3567	66.7482	-0.24	0.31	0.00	-23.01	7.396	0.12681	7.14047	0.0
32.3767	66.7482	-0.24	0.31	0.00	-23.01	7.396	0.12431	7.14051	2.0
32.3967	66.7482	-0.24	0.31	0.00	-23.01	7.396	0.12182	7.14055	0.0
32.4167	66.7482	-0.24	0.31	0.00	-23.01	7.396	0.11933	7.14060	2.0
32.4367	66.7482	-0.24	0.31	0.00	-23.01	7.396	0.11684	7.14064	0.0
32.4567	66.7482	-0.24	0.31	0.00	-23.01	7.396	0.11434	7.14068	0.0
32.4767	66.7482	-0.24	0.31	0.00	-23.01	7.396	0.11185	7.14072	0.0
32.4967	66.7482	-0.24	0.31	0.00	-23.01	7.396	0.10936	7.14076	0.0
32.5167	66.7482	-0.24	0.31	0.00	-23.01	7.396	0.10687	7.14079	2.0
32.5367	66.7482	-0.24	0.31	0.00	-23.01	7.396	0.10437	7.14083	4.0
32.5567	66.7482	-0.24	0.31	0.00	-23.01	7.396	0.10188	7.14087	0.0
32.5767	66.7482	-0.24	0.31	0.00	-23.01	7.396	0.09939	7.14090	0.0
32.5967	66.7482	-0.24	0.31	0.00	-23.01	7.396	0.09690	7.14094	0.0
32.6167	66.7482	-0.24	0.31	0.00	-23.01	7.396	0.09440	7.14097	0.0
32.6367	66.7482	-0.24	0.31	0.00	-23.01	7.396	0.09191	7.14100	2.0
32.6567	66.7482	-0.24	0.31	0.00	-23.01	7.396	0.08942	7.14103	0.0
32.6767	66.7482	-0.24	0.31	0.00	-23.01	7.396	0.08692	7.14106	0.0
32.6967	66.7482	-0.24	0.31	0.00	-23.01	7.396	0.08443	7.14109	0.0
32.7167	66.7482	-0.24	0.31	0.00	-23.01	7.396	0.08194	7.14112	0.0
32.7367	66.7482	-0.24	0.31	0.00	-23.01	7.396	0.07945	7.14115	2.0
32.7567	66.7482	-0.24	0.31	0.00	-23.01	7.396	0.07695	7.14118	0.0
32.7767	66.7482	-0.24	0.31	0.00	-23.01	7.396	0.07446	7.14120	0.0
32.7967	66.7482	-0.24	0.31	0.00	-23.01	7.396	0.07197	7.14123	0.0
32.8167	66.7482	-0.24	0.31	0.00	-23.01	7.396	0.06948	7.14125	2.0
32.8367	66.7482	-0.24	0.31	0.00	-23.01	7.396	0.06698	7.14128	0.0
32.8567	66.7482	-0.24	0.31	0.00	-23.01	7.396	0.06449	7.14130	0.0
32.8767	66.7482	-0.24	0.31	0.00	-23.01	7.396	0.06200	7.14132	0.0
32.8967	66.7482	-0.24	0.31	0.00	-23.01	7.396	0.05950	7.14134	0.0
32.9167	66.7482	-0.24	0.31	0.00	-23.01	7.396	0.05701	7.14136	6.0
32.9367	66.7482	-0.24	0.31	0.00	-23.01	7.396	0.05452	7.14138	4.0
32.9567	66.7482	-0.24	0.31	0.00	-23.01	7.396	0.05203	7.14140	0.0
32.9767	66.7482	-0.24	0.31	0.00	-23.01	7.396	0.04953	7.14142	2.0
32.9967	66.7482	-0.24	0.31	0.00	-23.01	7.396	0.04704	7.14144	2.0
33.0167	66.7482	-0.24	0.31	0.00	-23.01	7.396	0.04455	7.14145	0.0
33.0367	66.7482	-0.24	0.31	0.00	-23.01	7.396	0.04205	7.14147	0.0
33.0567	66.7482	-0.24	0.31	0.00	-23.01	7.396	0.03956	7.14148	0.0
33.0767	66.7482	-0.24	0.31	0.00	-23.01	7.396	0.03707	7.14150	2.0
33.0967	66.7482	-0.24	0.31	0.00	-23.01	7.396	0.03458	7.14151	0.0
33.1167	66.7482	-0.24	0.31	0.00	-23.01	7.396	0.03208	7.14152	2.0
33.1367	66.7482	-0.24	0.31	0.00	-23.01	7.396	0.02959	7.14153	0.0
33.1567	66.7482	-0.24	0.31	0.00	-23.01	7.396	0.02710	7.14154	0.0
33.1767	66.7482	-0.24	0.31	0.00	-23.01	7.396	0.02460	7.14155	0.0
33.1967	66.7482	-0.24	0.31	0.00	-23.01	7.396	0.02211	7.14156	2.0
33.2167	66.7482	-0.24	0.31	0.00	-23.01	7.396	0.01962	7.14157	2.0
33.2367	66.7482	-0.24	0.31	0.00	-23.01	7.396	0.01713	7.14157	0.0
33.2567	66.7482	-0.24	0.31	0.00	-23.01	7.396	0.01463	7.14158	0.0
33.2767	66.7482	-0.24	0.31	0.00	-23.01	7.396	0.01214	7.14158	0.0
33.2967	66.7482	-0.24	0.31	0.00	-23.01	7.396	0.00965	7.14159	0.0
33.3167	66.7482	-0.24	0.31	0.00	-23.01	7.396	0.00715	7.14159	6.0
33.3367	66.7482	-0.24	0.31	0.00	-23.01	7.396	0.00466	7.14159	0.0
33.3567	66.7482	-0.24	0.31	0.00	-23.01	7.396	0.00217	7.14159	0.0
33.3767	66.7482	-0.24	0.31	0.00	-23.01	7.396	-0.00032	7.14159	0.0
33.3967	66.7482	-0.24	0.31	0.00	-23.01	7.396	-0.00282	7.14159	0.0
33.4167	66.7482	-0.24	0.31	0.00	-23.01	7.396	-0.00531	7.14159	0.0
33.4367	66.7482	-0.24	0.31	0.00	-23.01	7.396	-0.00780	7.14159	0.0
33.4567	66.7482	-0.24	0.31	0.00	-23.01	7.396	-0.01030	7.14159	2.0
33.4767	66.7482	-0.24	0.31	0.00	-23.01	7.396	-0.01279	7.14158	0.0
33.4967	66.7482	-0.24	0.31	0.00	-23.01	7.396	-0.01528	7.14158	2.0
33.5167	66.7482	-0.24	0.31	0.00	-23.01	7.396	-0.01777	7.14157	0.0
33.5367	66.7482	-0.24	0.31	0.00	-23.01	7.396	-0.02027	7.14156	0.0
33.5567	66.7482	-0.24	0.31	0.00	-23.01	7.396	-0.02276	7.14156	2.0
33.5767	66.7482	-0.24	0.31	0.00	-23.01	7.396	-0.02525	7.14155	2.0
33.5967	66.7482	-0.24	0.31	0.00	-23.01	7.396	-0.02775	7.14154	0.0
33.6167	66.7482	-0.24	0.31	0.00	-23.01	7.396	-0.03024	7.14153	0.0
33.6367	66.7482	-0.24	0.31	0.00	-23.01	7.396	-0.03273	7.14152	2.0
33.6567	66.7482	-0.24	0.31	0.00	-23.01	7.396	-0.03522	7.14151	2.0
33.6767	66.7482	-0.24	0.31	0.00	-23.01	7.396	-0.03772	7.14149	0.0
33.6967	66.7482	-0.24	0.31	0.00	-23.01	7.396	-0.04021	7.14148	0.0
33.7167	66.7482	-0.24	0.31	0.00	-23.01	7.396	-0.04270	7.14146	0.0
33.7367	66.7482	-0.24	0.31	0.00	-23.01	7.396	-0.04520	7.14145	2.0
33.7567	66.7482	-0.24	0.31	0.00	-23.01	7.396	-0.04769	7.14143	0.0
33.7767	66.7482	-0.24	0.31	0.00	-23.01	7.396	-0.05018	7.14142	0.0
33.7967	66.7482	-0.24	0.31	0.00	-23.01	7.396	-0.05267	7.14140	0.0
33.8167	66.7482	-0.24	0.31	0.00	-23.01	7.396	-0.05517	7.14138	0.0
33.8367	66.7482	-0.24	0.31	0.00	-23.01	7.396	-0.05766	7.14136	0.0
33.8567	66.7482	-0.24	0.31	0.00	-23.01	7.396	-0.06015	7.14134	2.0
33.8767	66.7482	-0.24	0.31	0.00	-23.01	7.396	-0.06265	7.14132	0.0
33.8967	66.7482	-0.24	0.31	0.00	-23.01	7.396	-0.06514	7.14130	4.0
33.9167	66.7482	-0.24	0.31	0.00	-23.01	7.396	-0.06763	7.14127	2.0
33.9367	66.7482	-0.24	0.31	0.00	-23.01	7.396	-0.07012	7.14125	4.0
33.9567	66.7482	-0.24	0.31	0.00	-23.01	7.396	-0.07262	7.14122	0.0
33.9767	66.7482	-0.24	0.31	0.00	-23.01	7.396	-0.07511	7.14120	0.0
33.9967	66.7482	-0.24	0.31	0.00	-23.01	7.396	-0.07760	7.14117	4.0
34.0167	66.7482	-0.24	0.31	0.00	-23.01	7.396	-0.08009	7.14114	0.0
34.0367	66.7482	-0.24	0.31	0.00	-23.01	7.396	-0.08259	7.14111	6.0
34.0567	66.7482	-0.24	0.31	0.00	-23.01	7.396	-0.08508	7.14109	2.0
34.0767	66.7482	-0.24	0.31	0.00	-23.01	7.396	-0.08757	7.14106	0.0
34.0967	66.7482	-0.24	0.31	0.00	-23.01	7.396	-0.09007	7.14102	2.0
34.1167	66.7482	-0.24	0.31	0.00	-23.01	7.396	-0.09256	7.14099	0.0
34.1367	66.7482	-0.24	0.31	0.00	-23.01	7.396	-0.09505	7.14096	0.0
34.1567	66.7482	-0.24	0.31	0.00	-23.01	7.396	-0.09754	7.14093	0.0
34.1767	66.7482	-0.24	0.31	0.00	-23.01	7.396	-0.10004	7.14089	2.0
34.1967	66.7482	-0.24	0.31	0.00	-23.01	7.396	-0.10253	7.14086	4.0
34.2167	66.7482	-0.24	0.31	0.00	-23.01	7.396	-0.10502	7.14082	0.0
34.2367	66.7482	-0.24	0.31	0.00	-23.01	7.396	-0.10751	7.14078	2.0
34.2567	66.7482	-0.24	0.31	0.00	-23.01	7.396	-0.11001	7.14075	2.0

32.2667	66.7682	-0.24	0.31	0.00	-23.01	7.396	0.13931	7.14213	0.0
32.2867	66.7682	-0.24	0.31	0.00	-23.01	7.396	0.13681	7.14217	0.0
32.3067	66.7682	-0.24	0.31	0.00	-23.01	7.396	0.13432	7.14222	2.0
32.3267	66.7682	-0.24	0.31	0.00	-23.01	7.396	0.13183	7.14227	4.0
32.3467	66.7682	-0.24	0.31	0.00	-23.01	7.396	0.12933	7.14231	0.0
32.3667	66.7682	-0.24	0.31	0.00	-23.01	7.396	0.12684	7.14236	2.0
32.3867	66.7682	-0.24	0.31	0.00	-23.01	7.396	0.12435	7.14240	0.0
32.4067	66.7682	-0.24	0.31	0.00	-23.01	7.396	0.12185	7.14245	2.0
32.4267	66.7682	-0.24	0.31	0.00	-23.01	7.396	0.11936	7.14249	0.0
32.4467	66.7682	-0.24	0.31	0.00	-23.01	7.396	0.11687	7.14253	2.0
32.4667	66.7682	-0.24	0.31	0.00	-23.01	7.396	0.11437	7.14257	2.0
32.4867	66.7682	-0.24	0.31	0.00	-23.01	7.396	0.11188	7.14261	2.0
32.5067	66.7682	-0.24	0.31	0.00	-23.01	7.396	0.10939	7.14265	0.0
32.5267	66.7682	-0.24	0.31	0.00	-23.01	7.396	0.10689	7.14268	2.0
32.5467	66.7682	-0.24	0.31	0.00	-23.01	7.396	0.10440	7.14272	0.0
32.5667	66.7682	-0.24	0.31	0.00	-23.01	7.396	0.10191	7.14276	2.0
32.5867	66.7682	-0.24	0.31	0.00	-23.01	7.396	0.09941	7.14279	6.0
32.6067	66.7682	-0.24	0.31	0.00	-23.01	7.396	0.09692	7.14283	0.0
32.6267	66.7682	-0.24	0.31	0.00	-23.01	7.396	0.09443	7.14286	0.0
32.6467	66.7682	-0.24	0.31	0.00	-23.01	7.396	0.09193	7.14289	0.0
32.6667	66.7682	-0.24	0.31	0.00	-23.01	7.396	0.08944	7.14292	2.0
32.6867	66.7682	-0.24	0.31	0.00	-23.01	7.396	0.08695	7.14296	0.0
32.7067	66.7682	-0.24	0.31	0.00	-23.01	7.396	0.08445	7.14299	2.0
32.7267	66.7682	-0.24	0.31	0.00	-23.01	7.396	0.08196	7.14301	0.0
32.7467	66.7682	-0.24	0.31	0.00	-23.01	7.396	0.07947	7.14304	2.0
32.7667	66.7682	-0.24	0.31	0.00	-23.01	7.396	0.07697	7.14307	0.0
32.7867	66.7682	-0.24	0.31	0.00	-23.01	7.396	0.07448	7.14310	0.0
32.8067	66.7682	-0.24	0.31	0.00	-23.01	7.396	0.07199	7.14312	0.0
32.8267	66.7682	-0.24	0.31	0.00	-23.01	7.396	0.06949	7.14315	2.0
32.8467	66.7682	-0.24	0.31	0.00	-23.01	7.396	0.06700	7.14317	2.0
32.8667	66.7682	-0.24	0.31	0.00	-23.01	7.396	0.06451	7.14319	0.0
32.8867	66.7682	-0.24	0.31	0.00	-23.01	7.396	0.06201	7.14322	0.0
32.9067	66.7682	-0.24	0.31	0.00	-23.01	7.396	0.05952	7.14324	0.0
32.9267	66.7682	-0.24	0.31	0.00	-23.01	7.396	0.05703	7.14326	0.0
32.9467	66.7682	-0.24	0.31	0.00	-23.01	7.396	0.05453	7.14328	2.0
32.9667	66.7682	-0.24	0.31	0.00	-23.01	7.396	0.05204	7.14329	2.0
32.9867	66.7682	-0.24	0.31	0.00	-23.01	7.396	0.04955	7.14331	0.0
33.0067	66.7682	-0.24	0.31	0.00	-23.01	7.396	0.04705	7.14333	0.0
33.0267	66.7682	-0.24	0.31	0.00	-23.01	7.396	0.04456	7.14335	0.0
33.0467	66.7682	-0.24	0.31	0.00	-23.01	7.396	0.04207	7.14336	0.0
33.0667	66.7682	-0.24	0.31	0.00	-23.01	7.396	0.03957	7.14337	2.0
33.0867	66.7682	-0.24	0.31	0.00	-23.01	7.396	0.03708	7.14339	2.0
33.1067	66.7682	-0.24	0.31	0.00	-23.01	7.396	0.03459	7.14340	0.0
33.1267	66.7682	-0.24	0.31	0.00	-23.01	7.396	0.03209	7.14341	0.0
33.1467	66.7682	-0.24	0.31	0.00	-23.01	7.396	0.02960	7.14342	0.0
33.1667	66.7682	-0.24	0.31	0.00	-23.01	7.396	0.02710	7.14343	0.0
33.1867	66.7682	-0.24	0.31	0.00	-23.01	7.396	0.02461	7.14344	4.0
33.2067	66.7682	-0.24	0.31	0.00	-23.01	7.396	0.02212	7.14345	2.0
33.2267	66.7682	-0.24	0.31	0.00	-23.01	7.396	0.01962	7.14346	2.0
33.2467	66.7682	-0.24	0.31	0.00	-23.01	7.396	0.01713	7.14346	2.0
33.2667	66.7682	-0.24	0.31	0.00	-23.01	7.396	0.01464	7.14347	2.0
33.2867	66.7682	-0.24	0.31	0.00	-23.01	7.396	0.01214	7.14347	2.0
33.3067	66.7682	-0.24	0.31	0.00	-23.01	7.396	0.00965	7.14348	0.0
33.3267	66.7682	-0.24	0.31	0.00	-23.01	7.396	0.00716	7.14348	0.0
33.3467	66.7682	-0.24	0.31	0.00	-23.01	7.396	0.00466	7.14348	0.0
33.3667	66.7682	-0.24	0.31	0.00	-23.01	7.396	0.00217	7.14348	4.0
33.3867	66.7682	-0.24	0.31	0.00	-23.01	7.396	-0.00032	7.14348	0.0
33.4067	66.7682	-0.24	0.31	0.00	-23.01	7.396	-0.00282	7.14348	2.0
33.4267	66.7682	-0.24	0.31	0.00	-23.01	7.396	-0.00531	7.14348	4.0
33.4467	66.7682	-0.24	0.31	0.00	-23.01	7.396	-0.00780	7.14348	2.0
33.4667	66.7682	-0.24	0.31	0.00	-23.01	7.396	-0.01030	7.14348	4.0
33.4867	66.7682	-0.24	0.31	0.00	-23.01	7.396	-0.01279	7.14347	0.0
33.5067	66.7682	-0.24	0.31	0.00	-23.01	7.396	-0.01529	7.14347	0.0
33.5267	66.7682	-0.24	0.31	0.00	-23.01	7.396	-0.01778	7.14346	0.0
33.5467	66.7682	-0.24	0.31	0.00	-23.01	7.396	-0.02027	7.14346	0.0
33.5667	66.7682	-0.24	0.31	0.00	-23.01	7.396	-0.02277	7.14345	4.0
33.5867	66.7682	-0.24	0.31	0.00	-23.01	7.396	-0.02526	7.14344	2.0
33.6067	66.7682	-0.24	0.31	0.00	-23.01	7.396	-0.02775	7.14343	6.0
33.6267	66.7682	-0.24	0.31	0.00	-23.01	7.396	-0.03025	7.14342	2.0
33.6467	66.7682	-0.24	0.31	0.00	-23.01	7.396	-0.03274	7.14341	0.0
33.6667	66.7682	-0.24	0.31	0.00	-23.01	7.396	-0.03523	7.14340	4.0
33.6867	66.7682	-0.24	0.31	0.00	-23.01	7.396	-0.03773	7.14338	0.0
33.7067	66.7682	-0.24	0.31	0.00	-23.01	7.396	-0.04022	7.14337	4.0
33.7267	66.7682	-0.24	0.31	0.00	-23.01	7.396	-0.04271	7.14336	2.0
33.7467	66.7682	-0.24	0.31	0.00	-23.01	7.396	-0.04521	7.14334	0.0
33.7667	66.7682	-0.24	0.31	0.00	-23.01	7.396	-0.04770	7.14333	0.0
33.7867	66.7682	-0.24	0.31	0.00	-23.01	7.396	-0.05019	7.14331	0.0
33.8067	66.7682	-0.24	0.31	0.00	-23.01	7.396	-0.05269	7.14329	0.0
33.8267	66.7682	-0.24	0.31	0.00	-23.01	7.396	-0.05518	7.14327	0.0
33.8467	66.7682	-0.24	0.31	0.00	-23.01	7.396	-0.05768	7.14325	2.0
33.8667	66.7682	-0.24	0.31	0.00	-23.01	7.396	-0.06017	7.14323	0.0
33.8867	66.7682	-0.24	0.31	0.00	-23.01	7.396	-0.06266	7.14321	0.0
33.9067	66.7682	-0.24	0.31	0.00	-23.01	7.396	-0.06516	7.14319	0.0
33.9267	66.7682	-0.24	0.31	0.00	-23.01	7.396	-0.06765	7.14316	0.0
33.9467	66.7682	-0.24	0.31	0.00	-23.01	7.396	-0.07014	7.14314	0.0
33.9667	66.7682	-0.24	0.31	0.00	-23.01	7.396	-0.07264	7.14312	2.0
33.9867	66.7682	-0.24	0.31	0.00	-23.01	7.396	-0.07513	7.14309	2.0
34.0067	66.7682	-0.24	0.31	0.00	-23.01	7.396	-0.07762	7.14306	2.0
34.0267	66.7682	-0.24	0.31	0.00	-23.01	7.396	-0.08012	7.14304	0.0
34.0467	66.7682	-0.24	0.31	0.00	-23.01	7.396	-0.08261	7.14301	0.0
34.0667	66.7682	-0.24	0.31	0.00	-23.01	7.396	-0.08510	7.14298	2.0
34.0867	66.7682	-0.24	0.31	0.00	-23.01	7.396	-0.08760	7.14295	0.0
34.1067	66.7682	-0.24	0.31	0.00	-23.01	7.396	-0.09009	7.14292	2.0
34.1267	66.7682	-0.24	0.31	0.00	-23.01	7.396	-0.09258	7.14288	0.0
34.1467	66.7682	-0.24	0.31	0.00	-23.01	7.396	-0.09508	7.14285	2.0
34.1667	66.7682	-0.24	0.31	0.00	-23.01	7.396	-0.09757	7.14282	2.0
34.1867	66.7682	-0.24	0.31	0.00	-23.01	7.396	-0.10006	7.14278	4.0
34.2067	66.7682	-0.24	0.31	0.00	-23.01	7.396	-0.10256	7.14275	2.0
34.2267	66.7682	-0.24	0.31	0.00	-23.01	7.396	-0.10505	7.14271	0.0
34.2467	66.7682	-0.24	0.31	0.00	-23.01	7.396	-0.10754	7.14267	0.0
34.2667	66.7682	-0.24	0.31	0.00	-23.01	7.396	-0.11004	7.14264	0.0

[...]
35.6467	69.5682	-0.24	0.31	0.00	-23.01	7.396	-0.11150	7.40536	2.0
35.6667	69.5682	-0.24	0.31	0.00	-23.01	7.396	-0.11408	7.40532	2.0

33.6767	69.5882	-0.24	0.31	0.00	-23.01	7.396	0.14447	7.40665	0.0
33.6967	69.5882	-0.24	0.31	0.00	-23.01	7.396	0.14188	7.40670	0.0
33.7167	69.5882	-0.24	0.31	0.00	-23.01	7.396	0.13929	7.40675	2.0
33.7367	69.5882	-0.24	0.31	0.00	-23.01	7.396	0.13671	7.40680	2.0
33.7567	69.5882	-0.24	0.31	0.00	-23.01	7.396	0.13412	7.40685	4.0
33.7767	69.5882	-0.24	0.31	0.00	-23.01	7.396	0.13154	7.40689	0.0
33.7967	69.5882	-0.24	0.31	0.00	-23.01	7.396	0.12895	7.40694	2.0
33.8167	69.5882	-0.24	0.31	0.00	-23.01	7.396	0.12637	7.40699	2.0
33.8367	69.5882	-0.24	0.31	0.00	-23.01	7.396	0.12378	7.40703	0.0
33.8567	69.5882	-0.24	0.31	0.00	-23.01	7.396	0.12120	7.40707	0.0
33.8767	69.5882	-0.24	0.31	0.00	-23.01	7.396	0.11861	7.40711	2.0
33.8967	69.5882	-0.24	0.31	0.00	-23.01	7.396	0.11602	7.40715	2.0
33.9167	69.5882	-0.24	0.31	0.00	-23.01	7.396	0.11344	7.40719	0.0
33.9367	69.5882	-0.24	0.31	0.00	-23.01	7.396	0.11085	7.40723	4.0
33.9567	69.5882	-0.24	0.31	0.00	-23.01	7.396	0.10827	7.40727	0.0
33.9767	69.5882	-0.24	0.31	0.00	-23.01	7.396	0.10568	7.40731	0.0
33.9967	69.5882	-0.24	0.31	0.00	-23.01	7.396	0.10310	7.40735	2.0
34.0167	69.5882	-0.24	0.31	0.00	-23.01	7.396	0.10051	7.40738	2.0
34.0367	69.5882	-0.24	0.31	0.00	-23.01	7.396	0.09793	7.40742	0.0
34.0567	69.5882	-0.24	0.31	0.00	-23.01	7.396	0.09534	7.40745	0.0
34.0767	69.5882	-0.24	0.31	0.00	-23.01	7.396	0.09275	7.40748	6.0
34.0967	69.5882	-0.24	0.31	0.00	-23.01	7.396	0.09017	7.40751	2.0
34.1167	69.5882	-0.24	0.31	0.00	-23.01	7.396	0.08758	7.40755	0.0
34.1367	69.5882	-0.24	0.31	0.00	-23.01	7.396	0.08500	7.40758	0.0
34.1567	69.5882	-0.24	0.31	0.00	-23.01	7.396	0.08241	7.40760	4.0
34.1767	69.5882	-0.24	0.31	0.00	-23.01	7.396	0.07983	7.40763	0.0
34.1967	69.5882	-0.24	0.31	0.00	-23.01	7.396	0.07724	7.40766	2.0
34.2167	69.5882	-0.24	0.31	0.00	-23.01	7.396	0.07465	7.40769	6.0
34.2367	69.5882	-0.24	0.31	0.00	-23.01	7.396	0.07207	7.40771	0.0
34.2567	69.5882	-0.24	0.31	0.00	-23.01	7.396	0.06948	7.40774	4.0
34.2767	69.5882	-0.24	0.31	0.00	-23.01	7.396	0.06690	7.40776	4.0
34.2967	69.5882	-0.24	0.31	0.00	-23.01	7.396	0.06431	7.40778	0.0
34.3167	69.5882	-0.24	0.31	0.00	-23.01	7.396	0.06172	7.40781	0.0
34.3367	69.5882	-0.24	0.31	0.00	-23.01	7.396	0.05914	7.40783	0.0
34.3567	69.5882	-0.24	0.31	0.00	-23.01	7.396	0.05655	7.40785	2.0
34.3767	69.5882	-0.24	0.31	0.00	-23.01	7.396	0.05397	7.40787	4.0
34.3967	69.5882	-0.24	0.31	0.00	-23.01	7.396	0.05138	7.40788	2.0
34.4167	69.5882	-0.24	0.31	0.00	-23.01	7.396	0.04880	7.40790	4.0
34.4367	69.5882	-0.24	0.31	0.00	-23.01	7.396	0.04621	7.40792	4.0
34.4567	69.5882	-0.24	0.31	0.00	-23.01	7.396	0.04362	7.40793	6.0
34.4767	69.5882	-0.24	0.31	0.00	-23.01	7.396	0.04104	7.40795	4.0
34.4967	69.5882	-0.24	0.31	0.00	-23.01	7.396	0.03845	7.40796	2.0
34.5167	69.5882	-0.24	0.31	0.00	-23.01	7.396	0.03587	7.40798	0.0
34.5367	69.5882	-0.24	0.31	0.00	-23.01	7.396	0.03328	7.40799	2.0
34.5567	69.5882	-0.24	0.31	0.00	-23.01	7.396	0.03069	7.40800	2.0
34.5767	69.5882	-0.24	0.31	0.00	-23.01	7.396	0.02811	7.40801	4.0
34.5967	69.5882	-0.24	0.31	0.00	-23.01	7.396	0.02552	7.40802	4.0
34.6167	69.5882	-0.24	0.31	0.00	-23.01	7.396	0.02294	7.40803	0.0
34.6367	69.5882	-0.24	0.31	0.00	-23.01	7.396	0.02035	7.40803	2.0
34.6567	69.5882	-0.24	0.31	0.00	-23.01	7.396	0.01777	7.40804	2.0
34.6767	69.5882	-0.24	0.31	0.00	-23.01	7.396	0.01518	7.40805	4.0
34.6967	69.5882	-0.24	0.31	0.00	-23.01	7.396	0.01259	7.40805	0.0
34.7167	69.5882	-0.24	0.31	0.00	-23.01	7.396	0.01001	7.40806	4.0
34.7367	69.5882	-0.24	0.31	0.00	-23.01	7.396	0.00742	7.40806	0.0
34.7567	69.5882	-0.24	0.31	0.00	-23.01	7.396	0.00484	7.40806	4.0
34.7767	69.5882	-0.24	0.31	0.00	-23.01	7.396	0.00225	7.40806	2.0
34.7967	69.5882	-0.24	0.31	0.00	-23.01	7.396	-0.00034	7.40806	2.0
34.8167	69.5882	-0.24	0.31	0.00	-23.01	7.396	-0.00292	7.40806	2.0
34.8367	69.5882	-0.24	0.31	0.00	-23.01	7.396	-0.00551	7.40806	6.0
34.8567	69.5882	-0.24	0.31	0.00	-23.01	7.396	-0.00809	7.40806	6.0
34.8767	69.5882	-0.24	0.31	0.00	-23.01	7.396	-0.01068	7.40806	4.0
34.8967	69.5882	-0.24	0.31	0.00	-23.01	7.396	-0.01327	7.40805	2.0
34.9167	69.5882	-0.24	0.31	0.00	-23.01	7.396	-0.01585	7.40805	0.0
34.9367	69.5882	-0.24	0.31	0.00	-23.01	7.396	-0.01844	7.40804	2.0
34.9567	69.5882	-0.24	0.31	0.00	-23.01	7.396	-0.02102	7.40803	2.0
34.9767	69.5882	-0.24	0.31	0.00	-23.01	7.396	-0.02361	7.40803	2.0
34.9967	69.5882	-0.24	0.31	0.00	-23.01	7.396	-0.02620	7.40802	2.0
35.0167	69.5882	-0.24	0.31	0.00	-23.01	7.396	-0.02878	7.40801	0.0
35.0367	69.5882	-0.24	0.31	0.00	-23.01	7.396	-0.03137	7.40800	2.0
35.0567	69.5882	-0.24	0.31	0.00	-23.01	7.396	-0.03395	7.40799	2.0
35.0767	69.5882	-0.24	0.31	0.00	-23.01	7.396	-0.03654	7.40797	2.0
35.0967	69.5882	-0.24	0.31	0.00	-23.01	7.396	-0.03912	7.40796	2.0
35.1167	69.5882	-0.24	0.31	0.00	-23.01	7.396	-0.04171	7.40795	2.0
35.1367	69.5882	-0.24	0.31	0.00	-23.01	7.396	-0.04430	7.40793	2.0
35.1567	69.5882	-0.24	0.31	0.00	-23.01	7.396	-0.04688	7.40791	0.0
35.1767	69.5882	-0.24	0.31	0.00	-23.01	7.396	-0.04947	7.40790	0.0
35.1967	69.5882	-0.24	0.31	0.00	-23.01	7.396	-0.05205	7.40788	0.0
35.2167	69.5882	-0.24	0.31	0.00	-23.01	7.396	-0.05464	7.40786	0.0
35.2367	69.5882	-0.24	0.31	0.00	-23.01	7.396	-0.05723	7.40784	2.0
35.2567	69.5882	-0.24	0.31	0.00	-23.01	7.396	-0.05981	7.40782	2.0
35.2767	69.5882	-0.24	0.31	0.00	-23.01	7.396	-0.06240	7.40780	0.0
35.2967	69.5882	-0.24	0.31	0.00	-23.01	7.396	-0.06498	7.40778	0.0
35.3167	69.5882	-0.24	0.31	0.00	-23.01	7.396	-0.06757	7.40775	2.0
35.3367	69.5882	-0.24	0.31	0.00	-23.01	7.396	-0.07015	7.40773	0.0
35.3567	69.5882	-0.24	0.31	0.00	-23.01	7.396	-0.07274	7.40771	2.0
35.3767	69.5882	-0.24	0.31	0.00	-23.01	7.396	-0.07533	7.40768	2.0
35.3967	69.5882	-0.24	0.31	0.00	-23.01	7.396	-0.07791	7.40765	2.0
35.4167	69.5882	-0.24	0.31	0.00	-23.01	7.396	-0.08050	7.40763	0.0
35.4367	69.5882	-0.24	0.31	0.00	-23.01	7.396	-0.08308	7.40760	2.0
35.4567	69.5882	-0.24	0.31	0.00	-23.01	7.396	-0.08567	7.40757	0.0
35.4767	69.5882	-0.24	0.31	0.00	-23.01	7.396	-0.08825	7.40754	0.0
35.4967	69.5882	-0.24	0.31	0.00	-23.01	7.396	-0.09084	7.40751	2.0
35.5167	69.5882	-0.24	0.31	0.00	-23.01	7.396	-0.09343	7.40747	2.0
35.5367	69.5882	-0.24	0.31	0.00	-23.01	7.396	-0.09601	7.40744	4.0
35.5567	69.5882	-0.24	0.31	0.00	-23.01	7.396	-0.09860	7.40741	2.0
35.5767	69.5882	-0.24	0.31	0.00	-23.01	7.396	-0.10118	7.40737	2.0
35.5967	69.5882	-0.24	0.31	0.00	-23.01	7.396	-0.10377	7.40734	0.0
35.6167	69.5882	-0.24	0.31	0.00	-23.01	7.396	-0.10635	7.40730	0.0
35.6367	69.5882	-0.24	0.31	0.00	-23.01	7.396	-0.10894	7.40726	2.0
35.6567	69.5882	-0.24	0.31	0.00	-23.01	7.396	-0.11153	7.40722	2.0
35.6767	69.5882	-0.24	0.31	0.00	-23.01	7.396	-0.11411	7.40718	0.0

33.6867	69.6082	-0.24	0.31	0.00	-23.01	7.396	0.14450	7.40851	0.0
33.7067	69.6082	-0.24	0.31	0.00	-23.01	7.396	0.14192	7.40856	2.0
33.7267	69.6082	-0.24	0.31	0.00	-23.01	7.396	0.13933	7.40861	2.0
33.7467	69.6082	-0.24	0.31	0.00	-23.01	7.396	0.13674	7.40866	0.0
33.7667	69.6082	-0.24	0.31	0.00	-23.01	7.396	0.13416	7.40871	0.0
33.7867	69.6082	-0.24	0.31	0.00	-23.01	7.396	0.13157	7.40876	0.0
33.8067	69.6082	-0.24	0.31	0.00	-23.01	7.396	0.12898	7.40880	0.0
33.8267	69.6082	-0.24	0.31	0.00	-23.01	7.396	0.12640	7.40885	2.0
33.8467	69.6082	-0.24	0.31	0.00	-23.01	7.396	0.12381	7.40889	0.0
33.8667	69.6082	-0.24	0.31	0.00	-23.01	7.396	0.12123	7.40893	0.0
33.8867	69.6082	-0.24	0.31	0.00	-23.01	7.396	0.11864	7.40897	4.0
33.9067	69.6082	-0.24	0.31	0.00	-23.01	7.396	0.11605	7.40901	2.0
33.9267	69.6082	-0.24	0.31	0.00	-23.01	7.396	0.11347	7.40905	0.0
33.9467	69.6082	-0.24	0.31	0.00	-23.01	7.396	0.11088	7.40909	4.0
33.9667	69.6082	-0.24	0.31	0.00	-23.01	7.396	0.10830	7.40913	2.0
33.9867	69.6082	-0.24	0.31	0.00	-23.01	7.396	0.10571	7.40917	2.0
34.0067	69.6082	-0.24	0.31	0.00	-23.01	7.396	0.10312	7.40921	0.0
34.0267	69.6082	-0.24	0.31	0.00	-23.01	7.396	0.10054	7.40924	0.0
34.0467	69.6082	-0.24	0.31	0.00	-23.01	7.396	0.09795	7.40928	0.0
34.0667	69.6082	-0.24	0.31	0.00	-23.01	7.396	0.09536	7.40931	0.0
34.0867	69.6082	-0.24	0.31	0.00	-23.01	7.396	0.09278	7.40934	4.0
34.1067	69.6082	-0.24	0.31	0.00	-23.01	7.396	0.09019	7.40937	0.0
34.1267	69.6082	-0.24	0.31	0.00	-23.01	7.396	0.08760	7.40941	2.0
34.1467	69.6082	-0.24	0.31	0.00	-23.01	7.396	0.08502	7.40944	0.0
34.1667	69.6082	-0.24	0.31	0.00	-23.01	7.396	0.08243	7.40946	4.0
34.1867	69.6082	-0.24	0.31	0.00	-23.01	7.396	0.07985	7.40949	2.0
34.2067	69.6082	-0.24	0.31	0.00	-23.01	7.396	0.07726	7.40952	6.0
34.2267	69.6082	-0.24	0.31	0.00	-23.01	7.396	0.07467	7.40955	0.0
34.2467	69.6082	-0.24	0.31	0.00	-23.01	7.396	0.07209	7.40957	6.0
34.2667	69.6082	-0.24	0.31	0.00	-23.01	7.396	0.06950	7.40960	0.0
34.2867	69.6082	-0.24	0.31	0.00	-23.01	7.396	0.06691	7.40962	0.0
34.3067	69.6082	-0.24	0.31	0.00	-23.01	7.396	0.06433	7.40964	0.0
34.3267	69.6082	-0.24	0.31	0.00	-23.01	7.396	0.06174	7.40967	4.0
34.3467	69.6082	-0.24	0.31	0.00	-23.01	7.396	0.05915	7.40969	0.0
34.3667	69.6082	-0.24	0.31	0.00	-23.01	7.396	0.05657	7.40971	0.0
34.3867	69.6082	-0.24	0.31	0.00	-23.01	7.396	0.05398	7.40973	0.0
34.4067	69.6082	-0.24	0.31	0.00	-23.01	7.396	0.05139	7.40975	6.0
34.4267	69.6082	-0.24	0.31	0.00	-23.01	7.396	0.04881	7.40976	2.0
34.4467	69.6082	-0.24	0.31	0.00	-23.01	7.396	0.04622	7.40978	10.0
34.4667	69.6082	-0.24	0.31	0.00	-23.01	7.396	0.04363	7.40979	8.0
34.4867	69.6082	-0.24	0.31	0.00	-23.01	7.396	0.04105	7.40981	2.0
34.5067	69.6082	-0.24	0.31	0.00	-23.01	7.396	0.03846	7.40982	6.0
34.5267	69.6082	-0.24	0.31	0.00	-23.01	7.396	0.03588	7.40984	2.0
34.5467	69.6082	-0.24	0.31	0.00	-23.01	7.396	0.03329	7.40985	2.0
34.5667	69.6082	-0.24	0.31	0.00	-23.01	7.396	0.03070	7.40986	0.0
34.5867	69.6082	-0.24	0.31	0.00	-23.01	7.396	0.02812	7.40987	6.0
34.6067	69.6082	-0.24	0.31	0.00	-23.01	7.396	0.02553	7.40988	0.0
34.6267	69.6082	-0.24	0.31	0.00	-23.01	7.396	0.02294	7.40989	4.0
34.6467	69.6082	-0.24	0.31	0.00	-23.01	7.396	0.02036	7.40990	4.0
34.6667	69.6082	-0.24	0.31	0.00	-23.01	7.396	0.01777	7.40990	4.0
34.6867	69.6082	-0.24	0.31	0.00	-23.01	7.396	0.01518	7.40991	0.0
34.7067	69.6082	-0.24	0.31	0.00	-23.01	7.396	0.01260	7.40991	0.0
34.7267	69.6082	-0.24	0.31	0.00	-23.01	7.396	0.01001	7.40992	4.0
34.7467	69.6082	-0.24	0.31	0.00	-23.01	7.396	0.00742	7.40992	4.0
34.7667	69.6082	-0.24	0.31	0.00	-23.01	7.396	0.00484	7.40992	4.0
34.7867	69.6082	-0.24	0.31	0.00	-23.01	7.396	0.00225	7.40992	4.0
34.8067	69.6082	-0.24	0.31	0.00	-23.01	7.396	-0.00034	7.40992	2.0
34.8267	69.6082	-0.24	0.31	0.00	-23.01	7.396	-0.00292	7.40992	0.0
34.8467	69.6082	-0.24	0.31	0.00	-23.01	7.396	-0.00551	7.40992	4.0
34.8667	69.6082	-0.24	0.31	0.00	-23.01	7.396	-0.00810	7.40992	2.0
34.8867	69.6082	-0.24	0.31	0.00	-23.01	7.396	-0.01068	7.40992	4.0
34.9067	69.6082	-0.24	0.31	0.00	-23.01	7.396	-0.01327	7.40991	0.0
34.9267	69.6082	-0.24	0.31	0.00	-23.01	7.396	-0.01586	7.40991	0.0
34.9467	69.6082	-0.24	0.31	0.00	-23.01	7.396	-0.01844	7.40990	2.0
34.9667	69.6082	-0.24	0.31	0.00	-23.01	7.396	-0.02103	7.40989	2.0
34.9867	69.6082	-0.24	0.31	0.00	-23.01	7.396	-0.02362	7.40989	4.0
35.0067	69.6082	-0.24	0.31	0.00	-23.01	7.396	-0.02620	7.40988	2.0
35.0267	69.6082	-0.24	0.31	0.00	-23.01	7.396	-0.02879	7.40987	2.0
35.0467	69.6082	-0.24	0.31	0.00	-23.01	7.396	-0.03137	7.40986	2.0
35.0667	69.6082	-0.24	0.31	0.00	-23.01	7.396	-0.03396	7.40985	2.0
35.0867	69.6082	-0.24	0.31	0.00	-23.01	7.396	-0.03655	7.40983	0.0
35.1067	69.6082	-0.24	0.31	0.00	-23.01	7.396	-0.03913	7.40982	0.0
35.1267	69.6082	-0.24	0.31	0.00	-23.01	7.396	-0.04172	7.40981	4.0
35.1467	69.6082	-0.24	0.31	0.00	-23.01	7.396	-0.04431	7.40979	2.0
35.1667	69.6082	-0.24	0.31	0.00	-23.01	7.396	-0.04689	7.40978	2.0
35.1867	69.6082	-0.24	0.31	0.00	-23.01	7.396	-0.04948	7.40976	0.0
35.2067	69.6082	-0.24	0.31	0.00	-23.01	7.396	-0.05207	7.40974	0.0
35.2267	69.6082	-0.24	0.31	0.00	-23.01	7.396	-0.05465	7.40972	0.0
35.2467	69.6082	-0.24	0.31	0.00	-23.01	7.396	-0.05724	7.40970	2.0
35.2667	69.6082	-0.24	0.31	0.00	-23.01	7.396	-0.05983	7.40968	4.0
35.2867	69.6082	-0.24	0.31	0.00	-23.01	7.396	-0.06241	7.40966	0.0
35.3067	69.6082	-0.24	0.31	0.00	-23.01	7.396	-0.06500	7.40964	2.0
35.3267	69.6082	-0.24	0.31	0.00	-23.01	7.396	-0.06759	7.40962	6.0
35.3467	69.6082	-0.24	0.31	0.00	-23.01	7.396	-0.07017	7.40959	0.0
35.3667	69.6082	-0.24	0.31	0.00	-23.01	7.396	-0.07276	7.40957	4.0
35.3867	69.6082	-0.24	0.31	0.00	-23.01	7.396	-0.07534	7.40954	2.0
35.4067	69.6082	-0.24	0.31	0.00	-23.01	7.396	-0.07793	7.40951	0.0
35.4267	69.6082	-0.24	0.31	0.00	-23.01	7.396	-0.08052	7.40949	2.0
35.4467	69.6082	-0.24	0.31	0.00	-23.01	7.396	-0.08310	7.40946	0.0
35.4667	69.6082	-0.24	0.31	0.00	-23.01	7.396	-0.08569	7.40943	4.0
35.4867	69.6082	-0.24	0.31	0.00	-23.01	7.396	-0.08828	7.40940	0.0
35.5067	69.6082	-0.24	0.31	0.00	-23.01	7.396	-0.09086	7.40937	0.0
35.5267	69.6082	-0.24	0.31	0.00	-23.01	7.396	-0.09345	7.40933	2.0
35.5467	69.6082	-0.24	0.31	0.00	-23.01	7.396	-0.09604	7.40930	2.0
35.5667	69.6082	-0.24	0.31	0.00	-23.01	7.396	-0.09862	7.40927	0.0
35.5867	69.6082	-0.24	0.31	0.00	-23.01	7.396	-0.10121	7.40923	0.0
35.6067	69.6082	-0.24	0.31	0.00	-23.01	7.396	-0.10379	7.40920	0.0
35.6267	69.6082	-0.24	0.31	0.00	-23.01	7.396	-0.10638	7.40916	0.0
35.6467	69.6082	-0.24	0.31	0.00	-23.01	7.396	-0.10897	7.40912	2.0
35.6667	69.6082	-0.24	0.31	0.00	-23.01	7.396	-0.11155	7.40908	4.0
35.6867	69.6082	-0.24	0.31	0.00	-23.01	7.396	-0.11414	7.40904	0.0

33.6967	69.6282	-0.24	0.31	0.00	-23.01	7.396	0.14454	7.41037	0.0
33.7167	69.6282	-0.24	0.31	0.00	-23.01	7.396	0.14195	7.41042	0.0
33.7367	69.6282	-0.24	0.31	0.00	-23.01	7.396	0.13936	7.41047	2.0
33.7567	69.6282	-0.24	0.31	0.00	-23.01	7.396	0.13678	7.41052	2.0
33.7767	69.6282	-0.24	0.31	0.00	-23.01	7.396	0.13419	7.41057	2.0
33.7967	69.6282	-0.24	0.31	0.00	-23.01	7.396	0.13160	7.41062	0.0
33.8167	69.6282	-0.24	0.31	0.00	-23.01	7.396	0.12902	7.41066	0.0
33.8367	69.6282	-0.24	0.31	0.00	-23.01	7.396	0.12643	7.41071	0.0
33.8567	69.6282	-0.24	0.31	0.00	-23.01	7.396	0.12384	7.41075	0.0
33.8767	69.6282	-0.24	0.31	0.00	-23.01	7.396	0.12126	7.41079	0.0
33.8967	69.6282	-0.24	0.31	0.00	-23.01	7.396	0.11867	7.41083	4.0
33.9167	69.6282	-0.24	0.31	0.00	-23.01	7.396	0.11608	7.41087	6.0
33.9367	69.6282	-0.24	0.31	0.00	-23.01	7.396	0.11350	7.41091	6.0
33.9567	69.6282	-0.24	0.31	0.00	-23.01	7.396	0.11091	7.41095	2.0
33.9767	69.6282	-0.24	0.31	0.00	-23.01	7.396	0.10832	7.41099	2.0
33.9967	69.6282	-0.24	0.31	0.00	-23.01	7.396	0.10574	7.41103	4.0
34.0167	69.6282	-0.24	0.31	0.00	-23.01	7.396	0.10315	7.41107	2.0
34.0367	69.6282	-0.24	0.31	0.00	-23.01	7.396	0.10056	7.41110	0.0
34.0567	69.6282	-0.24	0.31	0.00	-23.01	7.396	0.09797	7.41114	2.0
34.0767	69.6282	-0.24	0.31	0.00	-23.01	7.396	0.09539	7.41117	0.0
34.0967	69.6282	-0.24	0.31	0.00	-23.01	7.396	0.09280	7.41120	2.0
34.1167	69.6282	-0.24	0.31	0.00	-23.01	7.396	0.09021	7.41123	6.0
34.1367	69.6282	-0.24	0.31	0.00	-23.01	7.396	0.08763	7.41127	4.0
34.1567	69.6282	-0.24	0.31	0.00	-23.01	7.396	0.08504	7.41130	2.0
34.1767	69.6282	-0.24	0.31	0.00	-23.01	7.396	0.08245	7.41133	0.0
34.1967	69.6282	-0.24	0.31	0.00	-23.01	7.396	0.07987	7.41135	2.0
34.2167	69.6282	-0.24	0.31	0.00	-23.01	7.396	0.07728	7.41138	2.0
34.2367	69.6282	-0.24	0.31	0.00	-23.01	7.396	0.07469	7.41141	0.0
34.2567	69.6282	-0.24	0.31	0.00	-23.01	7.396	0.07210	7.41143	10.0
34.2767	69.6282	-0.24	0.31	0.00	-23.01	7.396	0.06952	7.41146	6.0
34.2967	69.6282	-0.24	0.31	0.00	-23.01	7.396	0.06693	7.41148	0.0
34.3167	69.6282	-0.24	0.31	0.00	-23.01	7.396	0.06434	7.41150	6.0
34.3367	69.6282	-0.24	0.31	0.00	-23.01	7.396	0.06176	7.41153	0.0
34.3567	69.6282	-0.24	0.31	0.00	-23.01	7.396	0.05917	7.41155	2.0
34.3767	69.6282	-0.24	0.31	0.00	-23.01	7.396	0.05658	7.41157	2.0
34.3967	69.6282	-0.24	0.31	0.00	-23.01	7.396	0.05399	7.41159	0.0
34.4167	69.6282	-0.24	0.31	0.00	-23.01	7.396	0.05141	7.41161	2.0
34.4367	69.6282	-0.24	0.31	0.00	-23.01	7.396	0.04882	7.41162	6.0
34.4567	69.6282	-0.24	0.31	0.00	-23.01	7.396	0.04623	7.41164	14.0
34.4767	69.6282	-0.24	0.31	0.00	-23.01	7.396	0.04365	7.41166	4.0
34.4967	69.6282	-0.24	0.31	0.00	-23.01	7.396	0.04106	7.41167	0.0
34.5167	69.6282	-0.24	0.31	0.00	-23.01	7.396	0.03847	7.41168	2.0
34.5367	69.6282	-0.24	0.31	0.00	-23.01	7.396	0.03588	7.41170	4.0
34.5567	69.6282	-0.24	0.31	0.00	-23.01	7.396	0.03330	7.41171	2.0
34.5767	69.6282	-0.24	0.31	0.00	-23.01	7.396	0.03071	7.41172	8.0
34.5967	69.6282	-0.24	0.31	0.00	-23.01	7.396	0.02812	7.41173	2.0
34.6167	69.6282	-0.24	0.31	0.00	-23.01	7.396	0.02554	7.41174	2.0
34.6367	69.6282	-0.24	0.31	0.00	-23.01	7.396	0.02295	7.41175	0.0
34.6567	69.6282	-0.24	0.31	0.00	-23.01	7.396	0.02036	7.41176	0.0
34.6767	69.6282	-0.24	0.31	0.00	-23.01	7.396	0.01777	7.41176	0.0
34.6967	69.6282	-0.24	0.31	0.00	-23.01	7.396	0.01519	7.41177	2.0
34.7167	69.6282	-0.24	0.31	0.00	-23.01	7.396	0.01260	7.41177	0.0
34.7367	69.6282	-0.24	0.31	0.00	-23.01	7.396	0.01001	7.41178	0.0
34.7567	69.6282	-0.24	0.31	0.00	-23.01	7.396	0.00743	7.41178	2.0
34.7767	69.6282	-0.24	0.31	0.00	-23.01	7.396	0.00484	7.41178	4.0
34.7967	69.6282	-0.24	0.31	0.00	-23.01	7.396	0.00225	7.41178	0.0
34.8167	69.6282	-0.24	0.31	0.00	-23.01	7.396	-0.00034	7.41178	2.0
34.8367	69.6282	-0.24	0.31	0.00	-23.01	7.396	-0.00292	7.41178	2.0
34.8567	69.6282	-0.24	0.31	0.00	-23.01	7.396	-0.00551	7.41178	0.0
34.8767	69.6282	-0.24	0.31	0.00	-23.01	7.396	-0.00810	7.41178	0.0
34.8967	69.6282	-0.24	0.31	0.00	-23.01	7.396	-0.01069	7.41178	2.0
34.9167	69.6282	-0.24	0.31	0.00	-23.01	7.396	-0.01327	7.41177	14.0
34.9367	69.6282	-0.24	0.31	0.00	-23.01	7.396	-0.01586	7.41177	6.0
34.9567	69.6282	-0.24	0.31	0.00	-23.01	7.396	-0.01845	7.41176	2.0
34.9767	69.6282	-0.24	0.31	0.00	-23.01	7.396	-0.02103	7.41175	4.0
34.9967	69.6282	-0.24	0.31	0.00	-23.01	7.396	-0.02362	7.41175	2.0
35.0167	69.6282	-0.24	0.31	0.00	-23.01	7.396	-0.02621	7.41174	0.0
35.0367	69.6282	-0.24	0.31	0.00	-23.01	7.396	-0.02880	7.41173	0.0
35.0567	69.6282	-0.24	0.31	0.00	-23.01	7.396	-0.03138	7.41172	0.0
35.0767	69.6282	-0.24	0.31	0.00	-23.01	7.396	-0.03397	7.41171	0.0
35.0967	69.6282	-0.24	0.31	0.00	-23.01	7.396	-0.03656	7.41169	0.0
35.1167	69.6282	-0.24	0.31	0.00	-23.01	7.396	-0.03914	7.41168	4.0
35.1367	69.6282	-0.24	0.31	0.00	-23.01	7.396	-0.04173	7.41167	0.0
35.1567	69.6282	-0.24	0.31	0.00	-23.01	7.396	-0.04432	7.41165	0.0
35.1767	69.6282	-0.24	0.31	0.00	-23.01	7.396	-0.04691	7.41164	0.0
35.1967	69.6282	-0.24	0.31	0.00	-23.01	7.396	-0.04949	7.41162	2.0
35.2167	69.6282	-0.24	0.31	0.00	-23.01	7.396	-0.05208	7.41160	0.0
35.2367	69.6282	-0.24	0.31	0.00	-23.01	7.396	-0.05467	7.41158	0.0
35.2567	69.6282	-0.24	0.31	0.00	-23.01	7.396	-0.05725	7.41156	4.0
35.2767	69.6282	-0.24	0.31	0.00	-23.01	7.396	-0.05984	7.41154	4.0
35.2967	69.6282	-0.24	0.31	0.00	-23.01	7.396	-0.06243	7.41152	0.0
35.3167	69.6282	-0.24	0.31	0.00	-23.01	7.396	-0.06502	7.41150	0.0
35.3367	69.6282	-0.24	0.31	0.00	-23.01	7.396	-0.06760	7.41148	2.0
35.3567	69.6282	-0.24	0.31	0.00	-23.01	7.396	-0.07019	7.41145	2.0
35.3767	69.6282	-0.24	0.31	0.00	-23.01	7.396	-0.07278	7.41143	0.0
35.3967	69.6282	-0.24	0.31	0.00	-23.01	7.396	-0.07536	7.41140	0.0
35.4167	69.6282	-0.24	0.31	0.00	-23.01	7.396	-0.07795	7.41137	0.0
35.4367	69.6282	-0.24	0.31	0.00	-23.01	7.396	-0.08054	7.41135	2.0
35.4567	69.6282	-0.24	0.31	0.00	-23.01	7.396	-0.08313	7.41132	2.0
35.4767	69.6282	-0.24	0.31	0.00	-23.01	7.396	-0.08571	7.41129	0.0
35.4967	69.6282	-0.24	0.31	0.00	-23.01	7.396	-0.08830	7.41126	0.0
35.5167	69.6282	-0.24	0.31	0.00	-23.01	7.396	-0.09089	7.41123	2.0
35.5367	69.6282	-0.24	0.31	0.00	-23.01	7.396	-0.09347	7.41119	4.0
35.5567	69.6282	-0.24	0.31	0.00	-23.01	7.396	-0.09606	7.41116	0.0
35.5767	69.6282	-0.24	0.31	0.00	-23.01	7.396	-0.09865	7.41113	0.0
35.5967	69.6282	-0.24	0.31	0.00	-23.01	7.396	-0.10123	7.41109	2.0
35.6167	69.6282	-0.24	0.31	0.00	-23.01	7.396	-0.10382	7.41106	2.0
35.6367	69.6282	-0.24	0.31	0.00	-23.01	7.396	-0.10641	7.41102	0.0
35.6567	69.6282	-0.24	0.31	0.00	-23.01	7.396	-0.10899	7.41098	0.0
35.6767	69.6282	-0.24	0.31	0.00	-23.01	7.396	-0.11158	7.41094	2.0
35.6967	69.6282	-0.24	0.31	0.00	-23.01	7.396	-0.11417	7.41090	4.0