File: Data/Omega/1.5deg-2.0deg-rsm-2h30mins_11352-annealed_004_w-scans.dat
# filename: 1.5deg-2.0deg-rsm-2h30mins_11352-annealed_004.dat
# reflection: (004)
# type: rotated into a series of omega scans
# x-axis: Omega_2Theta
#
# Omega	2Theta	Phi  	Chi   	X    	Y    	Z    	q_para	q_perp	Intensity
# [deg]	[deg] 	[deg]	[deg] 	[mm] 	[mm] 	[mm] 	[nm-1]	[nm-1]	[counts/s]
32.6159	66.6676	-1.19	-0.10	0.00	17.51	7.290	0.08938	7.13341	0.0
32.6359	66.6676	-1.19	-0.10	0.00	17.51	7.290	0.08689	7.13344	0.0
32.6559	66.6676	-1.19	-0.10	0.00	17.51	7.290	0.08440	7.13347	2.0
32.6759	66.6676	-1.19	-0.10	0.00	17.51	7.290	0.08191	7.13349	2.0
32.6959	66.6676	-1.19	-0.10	0.00	17.51	7.290	0.07942	7.13352	0.0
32.7159	66.6676	-1.19	-0.10	0.00	17.51	7.290	0.07693	7.13355	0.0
32.7359	66.6676	-1.19	-0.10	0.00	17.51	7.290	0.07444	7.13358	0.0
32.7559	66.6676	-1.19	-0.10	0.00	17.51	7.290	0.07195	7.13360	2.0
32.7759	66.6676	-1.19	-0.10	0.00	17.51	7.290	0.06946	7.13363	0.0
32.7959	66.6676	-1.19	-0.10	0.00	17.51	7.290	0.06697	7.13365	0.0
32.8159	66.6676	-1.19	-0.10	0.00	17.51	7.290	0.06448	7.13367	0.0
32.8359	66.6676	-1.19	-0.10	0.00	17.51	7.290	0.06199	7.13370	0.0
32.8559	66.6676	-1.19	-0.10	0.00	17.51	7.290	0.05950	7.13372	0.0
32.8759	66.6676	-1.19	-0.10	0.00	17.51	7.290	0.05701	7.13374	0.0
32.8959	66.6676	-1.19	-0.10	0.00	17.51	7.290	0.05452	7.13376	0.0
32.9159	66.6676	-1.19	-0.10	0.00	17.51	7.290	0.05203	7.13378	0.0
32.9359	66.6676	-1.19	-0.10	0.00	17.51	7.290	0.04954	7.13379	2.0
32.9559	66.6676	-1.19	-0.10	0.00	17.51	7.290	0.04705	7.13381	0.0
32.9759	66.6676	-1.19	-0.10	0.00	17.51	7.290	0.04456	7.13383	0.0
32.9959	66.6676	-1.19	-0.10	0.00	17.51	7.290	0.04207	7.13384	0.0
33.0159	66.6676	-1.19	-0.10	0.00	17.51	7.290	0.03958	7.13386	0.0
33.0359	66.6676	-1.19	-0.10	0.00	17.51	7.290	0.03709	7.13387	0.0
33.0559	66.6676	-1.19	-0.10	0.00	17.51	7.290	0.03460	7.13388	0.0
33.0759	66.6676	-1.19	-0.10	0.00	17.51	7.290	0.03211	7.13389	0.0
33.0959	66.6676	-1.19	-0.10	0.00	17.51	7.290	0.02962	7.13390	0.0
33.1159	66.6676	-1.19	-0.10	0.00	17.51	7.290	0.02713	7.13391	0.0
33.1359	66.6676	-1.19	-0.10	0.00	17.51	7.290	0.02464	7.13392	0.0
33.1559	66.6676	-1.19	-0.10	0.00	17.51	7.290	0.02215	7.13393	0.0
33.1759	66.6676	-1.19	-0.10	0.00	17.51	7.290	0.01966	7.13394	4.0
33.1959	66.6676	-1.19	-0.10	0.00	17.51	7.290	0.01717	7.13394	0.0
33.2159	66.6676	-1.19	-0.10	0.00	17.51	7.290	0.01468	7.13395	2.0
33.2359	66.6676	-1.19	-0.10	0.00	17.51	7.290	0.01219	7.13395	2.0
33.2559	66.6676	-1.19	-0.10	0.00	17.51	7.290	0.00970	7.13396	8.0
33.2759	66.6676	-1.19	-0.10	0.00	17.51	7.290	0.00721	7.13396	0.0
33.2959	66.6676	-1.19	-0.10	0.00	17.51	7.290	0.00472	7.13396	0.0
33.3159	66.6676	-1.19	-0.10	0.00	17.51	7.290	0.00223	7.13396	0.0
33.3359	66.6676	-1.19	-0.10	0.00	17.51	7.290	-0.00026	7.13397	2.0
33.3559	66.6676	-1.19	-0.10	0.00	17.51	7.290	-0.00275	7.13396	0.0
33.3759	66.6676	-1.19	-0.10	0.00	17.51	7.290	-0.00524	7.13396	2.0
33.3959	66.6676	-1.19	-0.10	0.00	17.51	7.290	-0.00773	7.13396	2.0
33.4159	66.6676	-1.19	-0.10	0.00	17.51	7.290	-0.01022	7.13396	0.0
33.4359	66.6676	-1.19	-0.10	0.00	17.51	7.290	-0.01271	7.13395	0.0
33.4559	66.6676	-1.19	-0.10	0.00	17.51	7.290	-0.01520	7.13395	2.0
33.4759	66.6676	-1.19	-0.10	0.00	17.51	7.290	-0.01769	7.13394	4.0
33.4959	66.6676	-1.19	-0.10	0.00	17.51	7.290	-0.02018	7.13394	4.0
33.5159	66.6676	-1.19	-0.10	0.00	17.51	7.290	-0.02267	7.13393	0.0
33.5359	66.6676	-1.19	-0.10	0.00	17.51	7.290	-0.02516	7.13392	2.0
33.5559	66.6676	-1.19	-0.10	0.00	17.51	7.290	-0.02765	7.13391	0.0
33.5759	66.6676	-1.19	-0.10	0.00	17.51	7.290	-0.03014	7.13390	2.0
33.5959	66.6676	-1.19	-0.10	0.00	17.51	7.290	-0.03263	7.13389	0.0
33.6159	66.6676	-1.19	-0.10	0.00	17.51	7.290	-0.03512	7.13388	2.0
33.6359	66.6676	-1.19	-0.10	0.00	17.51	7.290	-0.03761	7.13387	0.0
33.6559	66.6676	-1.19	-0.10	0.00	17.51	7.290	-0.04010	7.13385	0.0
33.6759	66.6676	-1.19	-0.10	0.00	17.51	7.290	-0.04260	7.13384	2.0
33.6959	66.6676	-1.19	-0.10	0.00	17.51	7.290	-0.04509	7.13382	0.0
33.7159	66.6676	-1.19	-0.10	0.00	17.51	7.290	-0.04758	7.13381	2.0
33.7359	66.6676	-1.19	-0.10	0.00	17.51	7.290	-0.05007	7.13379	0.0
33.7559	66.6676	-1.19	-0.10	0.00	17.51	7.290	-0.05256	7.13377	0.0
33.7759	66.6676	-1.19	-0.10	0.00	17.51	7.290	-0.05505	7.13375	0.0
33.7959	66.6676	-1.19	-0.10	0.00	17.51	7.290	-0.05754	7.13373	2.0
33.8159	66.6676	-1.19	-0.10	0.00	17.51	7.290	-0.06003	7.13371	4.0
33.8359	66.6676	-1.19	-0.10	0.00	17.51	7.290	-0.06252	7.13369	2.0
33.8559	66.6676	-1.19	-0.10	0.00	17.51	7.290	-0.06501	7.13367	0.0
33.8759	66.6676	-1.19	-0.10	0.00	17.51	7.290	-0.06750	7.13365	0.0
33.8959	66.6676	-1.19	-0.10	0.00	17.51	7.290	-0.06999	7.13362	0.0
33.9159	66.6676	-1.19	-0.10	0.00	17.51	7.290	-0.07248	7.13360	2.0
33.9359	66.6676	-1.19	-0.10	0.00	17.51	7.290	-0.07497	7.13357	2.0
33.9559	66.6676	-1.19	-0.10	0.00	17.51	7.290	-0.07746	7.13354	2.0
33.9759	66.6676	-1.19	-0.10	0.00	17.51	7.290	-0.07995	7.13352	2.0
33.9959	66.6676	-1.19	-0.10	0.00	17.51	7.290	-0.08244	7.13349	0.0
34.0159	66.6676	-1.19	-0.10	0.00	17.51	7.290	-0.08493	7.13346	0.0
34.0359	66.6676	-1.19	-0.10	0.00	17.51	7.290	-0.08742	7.13343	2.0
34.0559	66.6676	-1.19	-0.10	0.00	17.51	7.290	-0.08991	7.13340	0.0
34.0759	66.6676	-1.19	-0.10	0.00	17.51	7.290	-0.09240	7.13337	0.0
34.0959	66.6676	-1.19	-0.10	0.00	17.51	7.290	-0.09489	7.13333	0.0
34.1159	66.6676	-1.19	-0.10	0.00	17.51	7.290	-0.09738	7.13330	0.0
34.1359	66.6676	-1.19	-0.10	0.00	17.51	7.290	-0.09987	7.13327	4.0
34.1559	66.6676	-1.19	-0.10	0.00	17.51	7.290	-0.10236	7.13323	0.0
34.1759	66.6676	-1.19	-0.10	0.00	17.51	7.290	-0.10485	7.13319	2.0
34.1959	66.6676	-1.19	-0.10	0.00	17.51	7.290	-0.10734	7.13316	0.0
34.2159	66.6676	-1.19	-0.10	0.00	17.51	7.290	-0.10983	7.13312	2.0
34.2359	66.6676	-1.19	-0.10	0.00	17.51	7.290	-0.11232	7.13308	0.0
34.2559	66.6676	-1.19	-0.10	0.00	17.51	7.290	-0.11481	7.13304	2.0
34.2759	66.6676	-1.19	-0.10	0.00	17.51	7.290	-0.11730	7.13300	0.0
34.2959	66.6676	-1.19	-0.10	0.00	17.51	7.290	-0.11979	7.13296	0.0
34.3159	66.6676	-1.19	-0.10	0.00	17.51	7.290	-0.12228	7.13292	2.0
34.3359	66.6676	-1.19	-0.10	0.00	17.51	7.290	-0.12477	7.13287	4.0
34.3559	66.6676	-1.19	-0.10	0.00	17.51	7.290	-0.12726	7.13283	0.0
34.3759	66.6676	-1.19	-0.10	0.00	17.51	7.290	-0.12975	7.13279	2.0
34.3959	66.6676	-1.19	-0.10	0.00	17.51	7.290	-0.13224	7.13274	2.0
34.4159	66.6676	-1.19	-0.10	0.00	17.51	7.290	-0.13473	7.13269	0.0
34.4359	66.6676	-1.19	-0.10	0.00	17.51	7.290	-0.13722	7.13265	4.0
34.4559	66.6676	-1.19	-0.10	0.00	17.51	7.290	-0.13971	7.13260	0.0
34.4759	66.6676	-1.19	-0.10	0.00	17.51	7.290	-0.14219	7.13255	2.0
34.4959	66.6676	-1.19	-0.10	0.00	17.51	7.290	-0.14468	7.13250	0.0
34.5159	66.6676	-1.19	-0.10	0.00	17.51	7.290	-0.14717	7.13245	4.0
34.5359	66.6676	-1.19	-0.10	0.00	17.51	7.290	-0.14966	7.13240	2.0
34.5559	66.6676	-1.19	-0.10	0.00	17.51	7.290	-0.15215	7.13234	2.0
34.5759	66.6676	-1.19	-0.10	0.00	17.51	7.290	-0.15464	7.13229	0.0
34.5959	66.6676	-1.19	-0.10	0.00	17.51	7.290	-0.15713	7.13223	0.0
34.6159	66.6676	-1.19	-0.10	0.00	17.51	7.290	-0.15962	7.13218	2.0

32.6259	66.6876	-1.19	-0.10	0.00	17.51	7.290	0.08941	7.13530	0.0
32.6459	66.6876	-1.19	-0.10	0.00	17.51	7.290	0.08692	7.13533	2.0
32.6659	66.6876	-1.19	-0.10	0.00	17.51	7.290	0.08443	7.13536	0.0
32.6859	66.6876	-1.19	-0.10	0.00	17.51	7.290	0.08194	7.13539	0.0
32.7059	66.6876	-1.19	-0.10	0.00	17.51	7.290	0.07945	7.13542	0.0
32.7259	66.6876	-1.19	-0.10	0.00	17.51	7.290	0.07695	7.13544	2.0
32.7459	66.6876	-1.19	-0.10	0.00	17.51	7.290	0.07446	7.13547	0.0
32.7659	66.6876	-1.19	-0.10	0.00	17.51	7.290	0.07197	7.13550	2.0
32.7859	66.6876	-1.19	-0.10	0.00	17.51	7.290	0.06948	7.13552	0.0
32.8059	66.6876	-1.19	-0.10	0.00	17.51	7.290	0.06699	7.13554	0.0
32.8259	66.6876	-1.19	-0.10	0.00	17.51	7.290	0.06450	7.13557	0.0
32.8459	66.6876	-1.19	-0.10	0.00	17.51	7.290	0.06201	7.13559	2.0
32.8659	66.6876	-1.19	-0.10	0.00	17.51	7.290	0.05952	7.13561	0.0
32.8859	66.6876	-1.19	-0.10	0.00	17.51	7.290	0.05703	7.13563	2.0
32.9059	66.6876	-1.19	-0.10	0.00	17.51	7.290	0.05454	7.13565	2.0
32.9259	66.6876	-1.19	-0.10	0.00	17.51	7.290	0.05205	7.13567	0.0
32.9459	66.6876	-1.19	-0.10	0.00	17.51	7.290	0.04956	7.13569	0.0
32.9659	66.6876	-1.19	-0.10	0.00	17.51	7.290	0.04706	7.13570	0.0
32.9859	66.6876	-1.19	-0.10	0.00	17.51	7.290	0.04457	7.13572	0.0
33.0059	66.6876	-1.19	-0.10	0.00	17.51	7.290	0.04208	7.13573	0.0
33.0259	66.6876	-1.19	-0.10	0.00	17.51	7.290	0.03959	7.13575	0.0
33.0459	66.6876	-1.19	-0.10	0.00	17.51	7.290	0.03710	7.13576	2.0
33.0659	66.6876	-1.19	-0.10	0.00	17.51	7.290	0.03461	7.13577	0.0
33.0859	66.6876	-1.19	-0.10	0.00	17.51	7.290	0.03212	7.13579	0.0
33.1059	66.6876	-1.19	-0.10	0.00	17.51	7.290	0.02963	7.13580	0.0
33.1259	66.6876	-1.19	-0.10	0.00	17.51	7.290	0.02714	7.13581	2.0
33.1459	66.6876	-1.19	-0.10	0.00	17.51	7.290	0.02465	7.13582	0.0
33.1659	66.6876	-1.19	-0.10	0.00	17.51	7.290	0.02216	7.13582	0.0
33.1859	66.6876	-1.19	-0.10	0.00	17.51	7.290	0.01967	7.13583	0.0
33.2059	66.6876	-1.19	-0.10	0.00	17.51	7.290	0.01717	7.13584	0.0
33.2259	66.6876	-1.19	-0.10	0.00	17.51	7.290	0.01468	7.13584	2.0
33.2459	66.6876	-1.19	-0.10	0.00	17.51	7.290	0.01219	7.13585	0.0
33.2659	66.6876	-1.19	-0.10	0.00	17.51	7.290	0.00970	7.13585	2.0
33.2859	66.6876	-1.19	-0.10	0.00	17.51	7.290	0.00721	7.13585	4.0
33.3059	66.6876	-1.19	-0.10	0.00	17.51	7.290	0.00472	7.13586	0.0
33.3259	66.6876	-1.19	-0.10	0.00	17.51	7.290	0.00223	7.13586	2.0
33.3459	66.6876	-1.19	-0.10	0.00	17.51	7.290	-0.00026	7.13586	0.0
33.3659	66.6876	-1.19	-0.10	0.00	17.51	7.290	-0.00275	7.13586	0.0
33.3859	66.6876	-1.19	-0.10	0.00	17.51	7.290	-0.00524	7.13586	2.0
33.4059	66.6876	-1.19	-0.10	0.00	17.51	7.290	-0.00773	7.13585	0.0
33.4259	66.6876	-1.19	-0.10	0.00	17.51	7.290	-0.01023	7.13585	2.0
33.4459	66.6876	-1.19	-0.10	0.00	17.51	7.290	-0.01272	7.13585	2.0
33.4659	66.6876	-1.19	-0.10	0.00	17.51	7.290	-0.01521	7.13584	0.0
33.4859	66.6876	-1.19	-0.10	0.00	17.51	7.290	-0.01770	7.13584	0.0
33.5059	66.6876	-1.19	-0.10	0.00	17.51	7.290	-0.02019	7.13583	0.0
33.5259	66.6876	-1.19	-0.10	0.00	17.51	7.290	-0.02268	7.13582	0.0
33.5459	66.6876	-1.19	-0.10	0.00	17.51	7.290	-0.02517	7.13581	2.0
33.5659	66.6876	-1.19	-0.10	0.00	17.51	7.290	-0.02766	7.13580	0.0
33.5859	66.6876	-1.19	-0.10	0.00	17.51	7.290	-0.03015	7.13579	4.0
33.6059	66.6876	-1.19	-0.10	0.00	17.51	7.290	-0.03264	7.13578	0.0
33.6259	66.6876	-1.19	-0.10	0.00	17.51	7.290	-0.03513	7.13577	2.0
33.6459	66.6876	-1.19	-0.10	0.00	17.51	7.290	-0.03762	7.13576	0.0
33.6659	66.6876	-1.19	-0.10	0.00	17.51	7.290	-0.04012	7.13575	2.0
33.6859	66.6876	-1.19	-0.10	0.00	17.51	7.290	-0.04261	7.13573	0.0
33.7059	66.6876	-1.19	-0.10	0.00	17.51	7.290	-0.04510	7.13572	2.0
33.7259	66.6876	-1.19	-0.10	0.00	17.51	7.290	-0.04759	7.13570	0.0
33.7459	66.6876	-1.19	-0.10	0.00	17.51	7.290	-0.05008	7.13568	0.0
33.7659	66.6876	-1.19	-0.10	0.00	17.51	7.290	-0.05257	7.13566	0.0
33.7859	66.6876	-1.19	-0.10	0.00	17.51	7.290	-0.05506	7.13565	0.0
33.8059	66.6876	-1.19	-0.10	0.00	17.51	7.290	-0.05755	7.13563	0.0
33.8259	66.6876	-1.19	-0.10	0.00	17.51	7.290	-0.06004	7.13561	0.0
33.8459	66.6876	-1.19	-0.10	0.00	17.51	7.290	-0.06253	7.13558	0.0
33.8659	66.6876	-1.19	-0.10	0.00	17.51	7.290	-0.06502	7.13556	0.0
33.8859	66.6876	-1.19	-0.10	0.00	17.51	7.290	-0.06751	7.13554	0.0
33.9059	66.6876	-1.19	-0.10	0.00	17.51	7.290	-0.07001	7.13551	4.0
33.9259	66.6876	-1.19	-0.10	0.00	17.51	7.290	-0.07250	7.13549	0.0
33.9459	66.6876	-1.19	-0.10	0.00	17.51	7.290	-0.07499	7.13546	0.0
33.9659	66.6876	-1.19	-0.10	0.00	17.51	7.290	-0.07748	7.13544	0.0
33.9859	66.6876	-1.19	-0.10	0.00	17.51	7.290	-0.07997	7.13541	2.0
34.0059	66.6876	-1.19	-0.10	0.00	17.51	7.290	-0.08246	7.13538	2.0
34.0259	66.6876	-1.19	-0.10	0.00	17.51	7.290	-0.08495	7.13535	0.0
34.0459	66.6876	-1.19	-0.10	0.00	17.51	7.290	-0.08744	7.13532	0.0
34.0659	66.6876	-1.19	-0.10	0.00	17.51	7.290	-0.08993	7.13529	0.0
34.0859	66.6876	-1.19	-0.10	0.00	17.51	7.290	-0.09242	7.13526	0.0
34.1059	66.6876	-1.19	-0.10	0.00	17.51	7.290	-0.09491	7.13523	0.0
34.1259	66.6876	-1.19	-0.10	0.00	17.51	7.290	-0.09740	7.13519	0.0
34.1459	66.6876	-1.19	-0.10	0.00	17.51	7.290	-0.09989	7.13516	0.0
34.1659	66.6876	-1.19	-0.10	0.00	17.51	7.290	-0.10238	7.13512	0.0
34.1859	66.6876	-1.19	-0.10	0.00	17.51	7.290	-0.10487	7.13509	0.0
34.2059	66.6876	-1.19	-0.10	0.00	17.51	7.290	-0.10737	7.13505	4.0
34.2259	66.6876	-1.19	-0.10	0.00	17.51	7.290	-0.10986	7.13501	0.0
34.2459	66.6876	-1.19	-0.10	0.00	17.51	7.290	-0.11235	7.13497	0.0
34.2659	66.6876	-1.19	-0.10	0.00	17.51	7.290	-0.11484	7.13493	0.0
34.2859	66.6876	-1.19	-0.10	0.00	17.51	7.290	-0.11733	7.13489	2.0
34.3059	66.6876	-1.19	-0.10	0.00	17.51	7.290	-0.11982	7.13485	0.0
34.3259	66.6876	-1.19	-0.10	0.00	17.51	7.290	-0.12231	7.13481	0.0
34.3459	66.6876	-1.19	-0.10	0.00	17.51	7.290	-0.12480	7.13477	0.0
34.3659	66.6876	-1.19	-0.10	0.00	17.51	7.290	-0.12729	7.13472	0.0
34.3859	66.6876	-1.19	-0.10	0.00	17.51	7.290	-0.12978	7.13468	0.0
34.4059	66.6876	-1.19	-0.10	0.00	17.51	7.290	-0.13227	7.13463	2.0
34.4259	66.6876	-1.19	-0.10	0.00	17.51	7.290	-0.13476	7.13459	0.0
34.4459	66.6876	-1.19	-0.10	0.00	17.51	7.290	-0.13725	7.13454	4.0
34.4659	66.6876	-1.19	-0.10	0.00	17.51	7.290	-0.13974	7.13449	0.0
34.4859	66.6876	-1.19	-0.10	0.00	17.51	7.290	-0.14223	7.13444	4.0
34.5059	66.6876	-1.19	-0.10	0.00	17.51	7.290	-0.14472	7.13439	2.0
34.5259	66.6876	-1.19	-0.10	0.00	17.51	7.290	-0.14721	7.13434	0.0
34.5459	66.6876	-1.19	-0.10	0.00	17.51	7.290	-0.14970	7.13429	0.0
34.5659	66.6876	-1.19	-0.10	0.00	17.51	7.290	-0.15219	7.13423	0.0
34.5859	66.6876	-1.19	-0.10	0.00	17.51	7.290	-0.15468	7.13418	2.0
34.6059	66.6876	-1.19	-0.10	0.00	17.51	7.290	-0.15717	7.13413	2.0
34.6259	66.6876	-1.19	-0.10	0.00	17.51	7.290	-0.15966	7.13407	2.0

32.6359	66.7076	-1.19	-0.10	0.00	17.51	7.290	0.08943	7.13719	0.0
32.6559	66.7076	-1.19	-0.10	0.00	17.51	7.290	0.08694	7.13722	0.0
32.6759	66.7076	-1.19	-0.10	0.00	17.51	7.290	0.08445	7.13725	0.0
32.6959	66.7076	-1.19	-0.10	0.00	17.51	7.290	0.08196	7.13728	2.0
32.7159	66.7076	-1.19	-0.10	0.00	17.51	7.290	0.07947	7.13731	0.0
32.7359	66.7076	-1.19	-0.10	0.00	17.51	7.290	0.07697	7.13734	0.0
32.7559	66.7076	-1.19	-0.10	0.00	17.51	7.290	0.07448	7.13736	0.0
32.7759	66.7076	-1.19	-0.10	0.00	17.51	7.290	0.07199	7.13739	0.0
32.7959	66.7076	-1.19	-0.10	0.00	17.51	7.290	0.06950	7.13741	0.0
32.8159	66.7076	-1.19	-0.10	0.00	17.51	7.290	0.06701	7.13744	0.0
32.8359	66.7076	-1.19	-0.10	0.00	17.51	7.290	0.06452	7.13746	0.0
32.8559	66.7076	-1.19	-0.10	0.00	17.51	7.290	0.06203	7.13748	0.0
32.8759	66.7076	-1.19	-0.10	0.00	17.51	7.290	0.05953	7.13750	0.0
32.8959	66.7076	-1.19	-0.10	0.00	17.51	7.290	0.05704	7.13752	0.0
32.9159	66.7076	-1.19	-0.10	0.00	17.51	7.290	0.05455	7.13754	0.0
32.9359	66.7076	-1.19	-0.10	0.00	17.51	7.290	0.05206	7.13756	2.0
32.9559	66.7076	-1.19	-0.10	0.00	17.51	7.290	0.04957	7.13758	2.0
32.9759	66.7076	-1.19	-0.10	0.00	17.51	7.290	0.04708	7.13760	2.0
32.9959	66.7076	-1.19	-0.10	0.00	17.51	7.290	0.04459	7.13761	0.0
33.0159	66.7076	-1.19	-0.10	0.00	17.51	7.290	0.04209	7.13763	2.0
33.0359	66.7076	-1.19	-0.10	0.00	17.51	7.290	0.03960	7.13764	2.0
33.0559	66.7076	-1.19	-0.10	0.00	17.51	7.290	0.03711	7.13765	0.0
33.0759	66.7076	-1.19	-0.10	0.00	17.51	7.290	0.03462	7.13767	0.0
33.0959	66.7076	-1.19	-0.10	0.00	17.51	7.290	0.03213	7.13768	2.0
33.1159	66.7076	-1.19	-0.10	0.00	17.51	7.290	0.02964	7.13769	0.0
33.1359	66.7076	-1.19	-0.10	0.00	17.51	7.290	0.02715	7.13770	2.0
33.1559	66.7076	-1.19	-0.10	0.00	17.51	7.290	0.02465	7.13771	0.0
33.1759	66.7076	-1.19	-0.10	0.00	17.51	7.290	0.02216	7.13772	2.0
33.1959	66.7076	-1.19	-0.10	0.00	17.51	7.290	0.01967	7.13772	2.0
33.2159	66.7076	-1.19	-0.10	0.00	17.51	7.290	0.01718	7.13773	2.0
33.2359	66.7076	-1.19	-0.10	0.00	17.51	7.290	0.01469	7.13774	0.0
33.2559	66.7076	-1.19	-0.10	0.00	17.51	7.290	0.01220	7.13774	2.0
33.2759	66.7076	-1.19	-0.10	0.00	17.51	7.290	0.00970	7.13774	2.0
33.2959	66.7076	-1.19	-0.10	0.00	17.51	7.290	0.00721	7.13775	0.0
33.3159	66.7076	-1.19	-0.10	0.00	17.51	7.290	0.00472	7.13775	0.0
33.3359	66.7076	-1.19	-0.10	0.00	17.51	7.290	0.00223	7.13775	2.0
33.3559	66.7076	-1.19	-0.10	0.00	17.51	7.290	-0.00026	7.13775	2.0
33.3759	66.7076	-1.19	-0.10	0.00	17.51	7.290	-0.00275	7.13775	0.0
33.3959	66.7076	-1.19	-0.10	0.00	17.51	7.290	-0.00524	7.13775	0.0
33.4159	66.7076	-1.19	-0.10	0.00	17.51	7.290	-0.00774	7.13775	0.0
33.4359	66.7076	-1.19	-0.10	0.00	17.51	7.290	-0.01023	7.13774	2.0
33.4559	66.7076	-1.19	-0.10	0.00	17.51	7.290	-0.01272	7.13774	4.0
33.4759	66.7076	-1.19	-0.10	0.00	17.51	7.290	-0.01521	7.13773	0.0
33.4959	66.7076	-1.19	-0.10	0.00	17.51	7.290	-0.01770	7.13773	4.0
33.5159	66.7076	-1.19	-0.10	0.00	17.51	7.290	-0.02019	7.13772	2.0
33.5359	66.7076	-1.19	-0.10	0.00	17.51	7.290	-0.02269	7.13771	0.0
33.5559	66.7076	-1.19	-0.10	0.00	17.51	7.290	-0.02518	7.13771	0.0
33.5759	66.7076	-1.19	-0.10	0.00	17.51	7.290	-0.02767	7.13770	0.0
33.5959	66.7076	-1.19	-0.10	0.00	17.51	7.290	-0.03016	7.13769	2.0
33.6159	66.7076	-1.19	-0.10	0.00	17.51	7.290	-0.03265	7.13768	0.0
33.6359	66.7076	-1.19	-0.10	0.00	17.51	7.290	-0.03514	7.13766	2.0
33.6559	66.7076	-1.19	-0.10	0.00	17.51	7.290	-0.03763	7.13765	2.0
33.6759	66.7076	-1.19	-0.10	0.00	17.51	7.290	-0.04013	7.13764	2.0
33.6959	66.7076	-1.19	-0.10	0.00	17.51	7.290	-0.04262	7.13762	2.0
33.7159	66.7076	-1.19	-0.10	0.00	17.51	7.290	-0.04511	7.13761	2.0
33.7359	66.7076	-1.19	-0.10	0.00	17.51	7.290	-0.04760	7.13759	0.0
33.7559	66.7076	-1.19	-0.10	0.00	17.51	7.290	-0.05009	7.13758	0.0
33.7759	66.7076	-1.19	-0.10	0.00	17.51	7.290	-0.05258	7.13756	8.0
33.7959	66.7076	-1.19	-0.10	0.00	17.51	7.290	-0.05508	7.13754	0.0
33.8159	66.7076	-1.19	-0.10	0.00	17.51	7.290	-0.05757	7.13752	0.0
33.8359	66.7076	-1.19	-0.10	0.00	17.51	7.290	-0.06006	7.13750	2.0
33.8559	66.7076	-1.19	-0.10	0.00	17.51	7.290	-0.06255	7.13748	0.0
33.8759	66.7076	-1.19	-0.10	0.00	17.51	7.290	-0.06504	7.13745	2.0
33.8959	66.7076	-1.19	-0.10	0.00	17.51	7.290	-0.06753	7.13743	2.0
33.9159	66.7076	-1.19	-0.10	0.00	17.51	7.290	-0.07002	7.13741	2.0
33.9359	66.7076	-1.19	-0.10	0.00	17.51	7.290	-0.07252	7.13738	2.0
33.9559	66.7076	-1.19	-0.10	0.00	17.51	7.290	-0.07501	7.13736	6.0
33.9759	66.7076	-1.19	-0.10	0.00	17.51	7.290	-0.07750	7.13733	2.0
33.9959	66.7076	-1.19	-0.10	0.00	17.51	7.290	-0.07999	7.13730	0.0
34.0159	66.7076	-1.19	-0.10	0.00	17.51	7.290	-0.08248	7.13727	0.0
34.0359	66.7076	-1.19	-0.10	0.00	17.51	7.290	-0.08497	7.13725	0.0
34.0559	66.7076	-1.19	-0.10	0.00	17.51	7.290	-0.08746	7.13721	0.0
34.0759	66.7076	-1.19	-0.10	0.00	17.51	7.290	-0.08995	7.13718	0.0
34.0959	66.7076	-1.19	-0.10	0.00	17.51	7.290	-0.09245	7.13715	0.0
34.1159	66.7076	-1.19	-0.10	0.00	17.51	7.290	-0.09494	7.13712	2.0
34.1359	66.7076	-1.19	-0.10	0.00	17.51	7.290	-0.09743	7.13709	0.0
34.1559	66.7076	-1.19	-0.10	0.00	17.51	7.290	-0.09992	7.13705	2.0
34.1759	66.7076	-1.19	-0.10	0.00	17.51	7.290	-0.10241	7.13702	0.0
34.1959	66.7076	-1.19	-0.10	0.00	17.51	7.290	-0.10490	7.13698	0.0
34.2159	66.7076	-1.19	-0.10	0.00	17.51	7.290	-0.10739	7.13694	0.0
34.2359	66.7076	-1.19	-0.10	0.00	17.51	7.290	-0.10989	7.13690	0.0
34.2559	66.7076	-1.19	-0.10	0.00	17.51	7.290	-0.11238	7.13687	6.0
34.2759	66.7076	-1.19	-0.10	0.00	17.51	7.290	-0.11487	7.13683	2.0
34.2959	66.7076	-1.19	-0.10	0.00	17.51	7.290	-0.11736	7.13679	0.0
34.3159	66.7076	-1.19	-0.10	0.00	17.51	7.290	-0.11985	7.13674	2.0
34.3359	66.7076	-1.19	-0.10	0.00	17.51	7.290	-0.12234	7.13670	2.0
34.3559	66.7076	-1.19	-0.10	0.00	17.51	7.290	-0.12483	7.13666	0.0
34.3759	66.7076	-1.19	-0.10	0.00	17.51	7.290	-0.12732	7.13662	0.0
34.3959	66.7076	-1.19	-0.10	0.00	17.51	7.290	-0.12981	7.13657	0.0
34.4159	66.7076	-1.19	-0.10	0.00	17.51	7.290	-0.13231	7.13652	4.0
34.4359	66.7076	-1.19	-0.10	0.00	17.51	7.290	-0.13480	7.13648	2.0
34.4559	66.7076	-1.19	-0.10	0.00	17.51	7.290	-0.13729	7.13643	0.0
34.4759	66.7076	-1.19	-0.10	0.00	17.51	7.290	-0.13978	7.13638	0.0
34.4959	66.7076	-1.19	-0.10	0.00	17.51	7.290	-0.14227	7.13633	0.0
34.5159	66.7076	-1.19	-0.10	0.00	17.51	7.290	-0.14476	7.13628	2.0
34.5359	66.7076	-1.19	-0.10	0.00	17.51	7.290	-0.14725	7.13623	0.0
34.5559	66.7076	-1.19	-0.10	0.00	17.51	7.290	-0.14974	7.13618	0.0
34.5759	66.7076	-1.19	-0.10	0.00	17.51	7.290	-0.15223	7.13613	4.0
34.5959	66.7076	-1.19	-0.10	0.00	17.51	7.290	-0.15473	7.13607	4.0
34.6159	66.7076	-1.19	-0.10	0.00	17.51	7.290	-0.15722	7.13602	0.0
34.6359	66.7076	-1.19	-0.10	0.00	17.51	7.290	-0.15971	7.13596	6.0

32.6459	66.7276	-1.19	-0.10	0.00	17.51	7.290	0.08946	7.13908	4.0
32.6659	66.7276	-1.19	-0.10	0.00	17.51	7.290	0.08696	7.13911	0.0
32.6859	66.7276	-1.19	-0.10	0.00	17.51	7.290	0.08447	7.13914	2.0
32.7059	66.7276	-1.19	-0.10	0.00	17.51	7.290	0.08198	7.13917	2.0
32.7259	66.7276	-1.19	-0.10	0.00	17.51	7.290	0.07949	7.13920	4.0
32.7459	66.7276	-1.19	-0.10	0.00	17.51	7.290	0.07700	7.13923	0.0
32.7659	66.7276	-1.19	-0.10	0.00	17.51	7.290	0.07450	7.13925	0.0
32.7859	66.7276	-1.19	-0.10	0.00	17.51	7.290	0.07201	7.13928	0.0
32.8059	66.7276	-1.19	-0.10	0.00	17.51	7.290	0.06952	7.13930	0.0
32.8259	66.7276	-1.19	-0.10	0.00	17.51	7.290	0.06703	7.13933	0.0
32.8459	66.7276	-1.19	-0.10	0.00	17.51	7.290	0.06453	7.13935	0.0
32.8659	66.7276	-1.19	-0.10	0.00	17.51	7.290	0.06204	7.13937	0.0
32.8859	66.7276	-1.19	-0.10	0.00	17.51	7.290	0.05955	7.13940	0.0
32.9059	66.7276	-1.19	-0.10	0.00	17.51	7.290	0.05706	7.13942	2.0
32.9259	66.7276	-1.19	-0.10	0.00	17.51	7.290	0.05457	7.13943	0.0
32.9459	66.7276	-1.19	-0.10	0.00	17.51	7.290	0.05207	7.13945	0.0
32.9659	66.7276	-1.19	-0.10	0.00	17.51	7.290	0.04958	7.13947	0.0
32.9859	66.7276	-1.19	-0.10	0.00	17.51	7.290	0.04709	7.13949	0.0
33.0059	66.7276	-1.19	-0.10	0.00	17.51	7.290	0.04460	7.13950	2.0
33.0259	66.7276	-1.19	-0.10	0.00	17.51	7.290	0.04211	7.13952	0.0
33.0459	66.7276	-1.19	-0.10	0.00	17.51	7.290	0.03961	7.13953	0.0
33.0659	66.7276	-1.19	-0.10	0.00	17.51	7.290	0.03712	7.13955	0.0
33.0859	66.7276	-1.19	-0.10	0.00	17.51	7.290	0.03463	7.13956	0.0
33.1059	66.7276	-1.19	-0.10	0.00	17.51	7.290	0.03214	7.13957	2.0
33.1259	66.7276	-1.19	-0.10	0.00	17.51	7.290	0.02964	7.13958	2.0
33.1459	66.7276	-1.19	-0.10	0.00	17.51	7.290	0.02715	7.13959	2.0
33.1659	66.7276	-1.19	-0.10	0.00	17.51	7.290	0.02466	7.13960	0.0
33.1859	66.7276	-1.19	-0.10	0.00	17.51	7.290	0.02217	7.13961	0.0
33.2059	66.7276	-1.19	-0.10	0.00	17.51	7.290	0.01968	7.13962	0.0
33.2259	66.7276	-1.19	-0.10	0.00	17.51	7.290	0.01718	7.13962	2.0
33.2459	66.7276	-1.19	-0.10	0.00	17.51	7.290	0.01469	7.13963	2.0
33.2659	66.7276	-1.19	-0.10	0.00	17.51	7.290	0.01220	7.13963	2.0
33.2859	66.7276	-1.19	-0.10	0.00	17.51	7.290	0.00971	7.13964	0.0
33.3059	66.7276	-1.19	-0.10	0.00	17.51	7.290	0.00721	7.13964	0.0
33.3259	66.7276	-1.19	-0.10	0.00	17.51	7.290	0.00472	7.13964	0.0
33.3459	66.7276	-1.19	-0.10	0.00	17.51	7.290	0.00223	7.13964	0.0
33.3659	66.7276	-1.19	-0.10	0.00	17.51	7.290	-0.00026	7.13964	0.0
33.3859	66.7276	-1.19	-0.10	0.00	17.51	7.290	-0.00275	7.13964	2.0
33.4059	66.7276	-1.19	-0.10	0.00	17.51	7.290	-0.00525	7.13964	0.0
33.4259	66.7276	-1.19	-0.10	0.00	17.51	7.290	-0.00774	7.13964	0.0
33.4459	66.7276	-1.19	-0.10	0.00	17.51	7.290	-0.01023	7.13964	0.0
33.4659	66.7276	-1.19	-0.10	0.00	17.51	7.290	-0.01272	7.13963	0.0
33.4859	66.7276	-1.19	-0.10	0.00	17.51	7.290	-0.01521	7.13963	0.0
33.5059	66.7276	-1.19	-0.10	0.00	17.51	7.290	-0.01771	7.13962	0.0
33.5259	66.7276	-1.19	-0.10	0.00	17.51	7.290	-0.02020	7.13961	0.0
33.5459	66.7276	-1.19	-0.10	0.00	17.51	7.290	-0.02269	7.13961	0.0
33.5659	66.7276	-1.19	-0.10	0.00	17.51	7.290	-0.02518	7.13960	0.0
33.5859	66.7276	-1.19	-0.10	0.00	17.51	7.290	-0.02768	7.13959	0.0
33.6059	66.7276	-1.19	-0.10	0.00	17.51	7.290	-0.03017	7.13958	0.0
33.6259	66.7276	-1.19	-0.10	0.00	17.51	7.290	-0.03266	7.13957	0.0
33.6459	66.7276	-1.19	-0.10	0.00	17.51	7.290	-0.03515	7.13956	2.0
33.6659	66.7276	-1.19	-0.10	0.00	17.51	7.290	-0.03764	7.13954	0.0
33.6859	66.7276	-1.19	-0.10	0.00	17.51	7.290	-0.04014	7.13953	2.0
33.7059	66.7276	-1.19	-0.10	0.00	17.51	7.290	-0.04263	7.13952	0.0
33.7259	66.7276	-1.19	-0.10	0.00	17.51	7.290	-0.04512	7.13950	0.0
33.7459	66.7276	-1.19	-0.10	0.00	17.51	7.290	-0.04761	7.13948	2.0
33.7659	66.7276	-1.19	-0.10	0.00	17.51	7.290	-0.05011	7.13947	0.0
33.7859	66.7276	-1.19	-0.10	0.00	17.51	7.290	-0.05260	7.13945	0.0
33.8059	66.7276	-1.19	-0.10	0.00	17.51	7.290	-0.05509	7.13943	0.0
33.8259	66.7276	-1.19	-0.10	0.00	17.51	7.290	-0.05758	7.13941	0.0
33.8459	66.7276	-1.19	-0.10	0.00	17.51	7.290	-0.06007	7.13939	2.0
33.8659	66.7276	-1.19	-0.10	0.00	17.51	7.290	-0.06257	7.13937	0.0
33.8859	66.7276	-1.19	-0.10	0.00	17.51	7.290	-0.06506	7.13935	0.0
33.9059	66.7276	-1.19	-0.10	0.00	17.51	7.290	-0.06755	7.13932	0.0
33.9259	66.7276	-1.19	-0.10	0.00	17.51	7.290	-0.07004	7.13930	4.0
33.9459	66.7276	-1.19	-0.10	0.00	17.51	7.290	-0.07253	7.13927	2.0
33.9659	66.7276	-1.19	-0.10	0.00	17.51	7.290	-0.07503	7.13925	0.0
33.9859	66.7276	-1.19	-0.10	0.00	17.51	7.290	-0.07752	7.13922	0.0
34.0059	66.7276	-1.19	-0.10	0.00	17.51	7.290	-0.08001	7.13920	4.0
34.0259	66.7276	-1.19	-0.10	0.00	17.51	7.290	-0.08250	7.13917	0.0
34.0459	66.7276	-1.19	-0.10	0.00	17.51	7.290	-0.08499	7.13914	0.0
34.0659	66.7276	-1.19	-0.10	0.00	17.51	7.290	-0.08749	7.13911	2.0
34.0859	66.7276	-1.19	-0.10	0.00	17.51	7.290	-0.08998	7.13908	2.0
34.1059	66.7276	-1.19	-0.10	0.00	17.51	7.290	-0.09247	7.13904	0.0
34.1259	66.7276	-1.19	-0.10	0.00	17.51	7.290	-0.09496	7.13901	0.0
34.1459	66.7276	-1.19	-0.10	0.00	17.51	7.290	-0.09745	7.13898	2.0
34.1659	66.7276	-1.19	-0.10	0.00	17.51	7.290	-0.09995	7.13894	0.0
34.1859	66.7276	-1.19	-0.10	0.00	17.51	7.290	-0.10244	7.13891	2.0
34.2059	66.7276	-1.19	-0.10	0.00	17.51	7.290	-0.10493	7.13887	0.0
34.2259	66.7276	-1.19	-0.10	0.00	17.51	7.290	-0.10742	7.13884	0.0
34.2459	66.7276	-1.19	-0.10	0.00	17.51	7.290	-0.10991	7.13880	4.0
34.2659	66.7276	-1.19	-0.10	0.00	17.51	7.290	-0.11241	7.13876	2.0
34.2859	66.7276	-1.19	-0.10	0.00	17.51	7.290	-0.11490	7.13872	2.0
34.3059	66.7276	-1.19	-0.10	0.00	17.51	7.290	-0.11739	7.13868	0.0
34.3259	66.7276	-1.19	-0.10	0.00	17.51	7.290	-0.11988	7.13864	0.0
34.3459	66.7276	-1.19	-0.10	0.00	17.51	7.290	-0.12237	7.13859	4.0
34.3659	66.7276	-1.19	-0.10	0.00	17.51	7.290	-0.12487	7.13855	2.0
34.3859	66.7276	-1.19	-0.10	0.00	17.51	7.290	-0.12736	7.13851	2.0
34.4059	66.7276	-1.19	-0.10	0.00	17.51	7.290	-0.12985	7.13846	0.0
34.4259	66.7276	-1.19	-0.10	0.00	17.51	7.290	-0.13234	7.13842	0.0
34.4459	66.7276	-1.19	-0.10	0.00	17.51	7.290	-0.13483	7.13837	0.0
34.4659	66.7276	-1.19	-0.10	0.00	17.51	7.290	-0.13732	7.13832	4.0
34.4859	66.7276	-1.19	-0.10	0.00	17.51	7.290	-0.13982	7.13827	0.0
34.5059	66.7276	-1.19	-0.10	0.00	17.51	7.290	-0.14231	7.13823	2.0
34.5259	66.7276	-1.19	-0.10	0.00	17.51	7.290	-0.14480	7.13817	0.0
34.5459	66.7276	-1.19	-0.10	0.00	17.51	7.290	-0.14729	7.13812	0.0
34.5659	66.7276	-1.19	-0.10	0.00	17.51	7.290	-0.14978	7.13807	0.0
34.5859	66.7276	-1.19	-0.10	0.00	17.51	7.290	-0.15227	7.13802	4.0
34.6059	66.7276	-1.19	-0.10	0.00	17.51	7.290	-0.15477	7.13797	0.0
34.6259	66.7276	-1.19	-0.10	0.00	17.51	7.290	-0.15726	7.13791	0.0
34.6459	66.7276	-1.19	-0.10	0.00	17.51	7.290	-0.15975	7.13786	2.0

32.6559	66.7476	-1.19	-0.10	0.00	17.51	7.290	0.08948	7.14098	2.0
32.6759	66.7476	-1.19	-0.10	0.00	17.51	7.290	0.08699	7.14101	0.0
32.6959	66.7476	-1.19	-0.10	0.00	17.51	7.290	0.08449	7.14104	0.0
32.7159	66.7476	-1.19	-0.10	0.00	17.51	7.290	0.08200	7.14106	0.0
32.7359	66.7476	-1.19	-0.10	0.00	17.51	7.290	0.07951	7.14109	2.0
32.7559	66.7476	-1.19	-0.10	0.00	17.51	7.290	0.07702	7.14112	0.0
32.7759	66.7476	-1.19	-0.10	0.00	17.51	7.290	0.07452	7.14115	0.0
32.7959	66.7476	-1.19	-0.10	0.00	17.51	7.290	0.07203	7.14117	0.0
32.8159	66.7476	-1.19	-0.10	0.00	17.51	7.290	0.06954	7.14120	6.0
32.8359	66.7476	-1.19	-0.10	0.00	17.51	7.290	0.06704	7.14122	0.0
32.8559	66.7476	-1.19	-0.10	0.00	17.51	7.290	0.06455	7.14124	2.0
32.8759	66.7476	-1.19	-0.10	0.00	17.51	7.290	0.06206	7.14127	2.0
32.8959	66.7476	-1.19	-0.10	0.00	17.51	7.290	0.05957	7.14129	0.0
32.9159	66.7476	-1.19	-0.10	0.00	17.51	7.290	0.05707	7.14131	0.0
32.9359	66.7476	-1.19	-0.10	0.00	17.51	7.290	0.05458	7.14133	0.0
32.9559	66.7476	-1.19	-0.10	0.00	17.51	7.290	0.05209	7.14135	0.0
32.9759	66.7476	-1.19	-0.10	0.00	17.51	7.290	0.04960	7.14136	0.0
32.9959	66.7476	-1.19	-0.10	0.00	17.51	7.290	0.04710	7.14138	0.0
33.0159	66.7476	-1.19	-0.10	0.00	17.51	7.290	0.04461	7.14140	2.0
33.0359	66.7476	-1.19	-0.10	0.00	17.51	7.290	0.04212	7.14141	0.0
33.0559	66.7476	-1.19	-0.10	0.00	17.51	7.290	0.03962	7.14143	0.0
33.0759	66.7476	-1.19	-0.10	0.00	17.51	7.290	0.03713	7.14144	0.0
33.0959	66.7476	-1.19	-0.10	0.00	17.51	7.290	0.03464	7.14145	0.0
33.1159	66.7476	-1.19	-0.10	0.00	17.51	7.290	0.03215	7.14146	0.0
33.1359	66.7476	-1.19	-0.10	0.00	17.51	7.290	0.02965	7.14147	0.0
33.1559	66.7476	-1.19	-0.10	0.00	17.51	7.290	0.02716	7.14148	0.0
33.1759	66.7476	-1.19	-0.10	0.00	17.51	7.290	0.02467	7.14149	2.0
33.1959	66.7476	-1.19	-0.10	0.00	17.51	7.290	0.02217	7.14150	2.0
33.2159	66.7476	-1.19	-0.10	0.00	17.51	7.290	0.01968	7.14151	0.0
33.2359	66.7476	-1.19	-0.10	0.00	17.51	7.290	0.01719	7.14152	0.0
33.2559	66.7476	-1.19	-0.10	0.00	17.51	7.290	0.01470	7.14152	0.0
33.2759	66.7476	-1.19	-0.10	0.00	17.51	7.290	0.01220	7.14153	0.0
33.2959	66.7476	-1.19	-0.10	0.00	17.51	7.290	0.00971	7.14153	0.0
33.3159	66.7476	-1.19	-0.10	0.00	17.51	7.290	0.00722	7.14153	0.0
33.3359	66.7476	-1.19	-0.10	0.00	17.51	7.290	0.00472	7.14153	0.0
33.3559	66.7476	-1.19	-0.10	0.00	17.51	7.290	0.00223	7.14154	0.0
33.3759	66.7476	-1.19	-0.10	0.00	17.51	7.290	-0.00026	7.14154	0.0
33.3959	66.7476	-1.19	-0.10	0.00	17.51	7.290	-0.00275	7.14154	0.0
33.4159	66.7476	-1.19	-0.10	0.00	17.51	7.290	-0.00525	7.14153	0.0
33.4359	66.7476	-1.19	-0.10	0.00	17.51	7.290	-0.00774	7.14153	2.0
33.4559	66.7476	-1.19	-0.10	0.00	17.51	7.290	-0.01023	7.14153	2.0
33.4759	66.7476	-1.19	-0.10	0.00	17.51	7.290	-0.01273	7.14152	2.0
33.4959	66.7476	-1.19	-0.10	0.00	17.51	7.290	-0.01522	7.14152	0.0
33.5159	66.7476	-1.19	-0.10	0.00	17.51	7.290	-0.01771	7.14151	4.0
33.5359	66.7476	-1.19	-0.10	0.00	17.51	7.290	-0.02020	7.14151	0.0
33.5559	66.7476	-1.19	-0.10	0.00	17.51	7.290	-0.02270	7.14150	0.0
33.5759	66.7476	-1.19	-0.10	0.00	17.51	7.290	-0.02519	7.14149	4.0
33.5959	66.7476	-1.19	-0.10	0.00	17.51	7.290	-0.02768	7.14148	0.0
33.6159	66.7476	-1.19	-0.10	0.00	17.51	7.290	-0.03018	7.14147	0.0
33.6359	66.7476	-1.19	-0.10	0.00	17.51	7.290	-0.03267	7.14146	0.0
33.6559	66.7476	-1.19	-0.10	0.00	17.51	7.290	-0.03516	7.14145	0.0
33.6759	66.7476	-1.19	-0.10	0.00	17.51	7.290	-0.03765	7.14144	2.0
33.6959	66.7476	-1.19	-0.10	0.00	17.51	7.290	-0.04015	7.14142	2.0
33.7159	66.7476	-1.19	-0.10	0.00	17.51	7.290	-0.04264	7.14141	2.0
33.7359	66.7476	-1.19	-0.10	0.00	17.51	7.290	-0.04513	7.14139	0.0
33.7559	66.7476	-1.19	-0.10	0.00	17.51	7.290	-0.04763	7.14138	2.0
33.7759	66.7476	-1.19	-0.10	0.00	17.51	7.290	-0.05012	7.14136	0.0
33.7959	66.7476	-1.19	-0.10	0.00	17.51	7.290	-0.05261	7.14134	0.0
33.8159	66.7476	-1.19	-0.10	0.00	17.51	7.290	-0.05510	7.14132	4.0
33.8359	66.7476	-1.19	-0.10	0.00	17.51	7.290	-0.05760	7.14130	0.0
33.8559	66.7476	-1.19	-0.10	0.00	17.51	7.290	-0.06009	7.14128	2.0
33.8759	66.7476	-1.19	-0.10	0.00	17.51	7.290	-0.06258	7.14126	0.0
33.8959	66.7476	-1.19	-0.10	0.00	17.51	7.290	-0.06508	7.14124	0.0
33.9159	66.7476	-1.19	-0.10	0.00	17.51	7.290	-0.06757	7.14122	0.0
33.9359	66.7476	-1.19	-0.10	0.00	17.51	7.290	-0.07006	7.14119	0.0
33.9559	66.7476	-1.19	-0.10	0.00	17.51	7.290	-0.07255	7.14117	0.0
33.9759	66.7476	-1.19	-0.10	0.00	17.51	7.290	-0.07505	7.14114	0.0
33.9959	66.7476	-1.19	-0.10	0.00	17.51	7.290	-0.07754	7.14111	0.0
34.0159	66.7476	-1.19	-0.10	0.00	17.51	7.290	-0.08003	7.14109	2.0
34.0359	66.7476	-1.19	-0.10	0.00	17.51	7.290	-0.08252	7.14106	0.0
34.0559	66.7476	-1.19	-0.10	0.00	17.51	7.290	-0.08502	7.14103	0.0
34.0759	66.7476	-1.19	-0.10	0.00	17.51	7.290	-0.08751	7.14100	2.0
34.0959	66.7476	-1.19	-0.10	0.00	17.51	7.290	-0.09000	7.14097	0.0
34.1159	66.7476	-1.19	-0.10	0.00	17.51	7.290	-0.09250	7.14094	2.0
34.1359	66.7476	-1.19	-0.10	0.00	17.51	7.290	-0.09499	7.14090	0.0
34.1559	66.7476	-1.19	-0.10	0.00	17.51	7.290	-0.09748	7.14087	0.0
34.1759	66.7476	-1.19	-0.10	0.00	17.51	7.290	-0.09997	7.14084	0.0
34.1959	66.7476	-1.19	-0.10	0.00	17.51	7.290	-0.10247	7.14080	0.0
34.2159	66.7476	-1.19	-0.10	0.00	17.51	7.290	-0.10496	7.14076	2.0
34.2359	66.7476	-1.19	-0.10	0.00	17.51	7.290	-0.10745	7.14073	0.0
34.2559	66.7476	-1.19	-0.10	0.00	17.51	7.290	-0.10994	7.14069	0.0
34.2759	66.7476	-1.19	-0.10	0.00	17.51	7.290	-0.11244	7.14065	0.0
34.2959	66.7476	-1.19	-0.10	0.00	17.51	7.290	-0.11493	7.14061	2.0
34.3159	66.7476	-1.19	-0.10	0.00	17.51	7.290	-0.11742	7.14057	0.0
34.3359	66.7476	-1.19	-0.10	0.00	17.51	7.290	-0.11991	7.14053	2.0
34.3559	66.7476	-1.19	-0.10	0.00	17.51	7.290	-0.12241	7.14049	2.0
34.3759	66.7476	-1.19	-0.10	0.00	17.51	7.290	-0.12490	7.14044	0.0
34.3959	66.7476	-1.19	-0.10	0.00	17.51	7.290	-0.12739	7.14040	4.0
34.4159	66.7476	-1.19	-0.10	0.00	17.51	7.290	-0.12988	7.14035	2.0
34.4359	66.7476	-1.19	-0.10	0.00	17.51	7.290	-0.13238	7.14031	0.0
34.4559	66.7476	-1.19	-0.10	0.00	17.51	7.290	-0.13487	7.14026	2.0
34.4759	66.7476	-1.19	-0.10	0.00	17.51	7.290	-0.13736	7.14021	2.0
34.4959	66.7476	-1.19	-0.10	0.00	17.51	7.290	-0.13985	7.14017	4.0
34.5159	66.7476	-1.19	-0.10	0.00	17.51	7.290	-0.14235	7.14012	2.0
34.5359	66.7476	-1.19	-0.10	0.00	17.51	7.290	-0.14484	7.14007	2.0
34.5559	66.7476	-1.19	-0.10	0.00	17.51	7.290	-0.14733	7.14002	0.0
34.5759	66.7476	-1.19	-0.10	0.00	17.51	7.290	-0.14982	7.13996	0.0
34.5959	66.7476	-1.19	-0.10	0.00	17.51	7.290	-0.15232	7.13991	0.0
34.6159	66.7476	-1.19	-0.10	0.00	17.51	7.290	-0.15481	7.13986	2.0
34.6359	66.7476	-1.19	-0.10	0.00	17.51	7.290	-0.15730	7.13980	2.0
34.6559	66.7476	-1.19	-0.10	0.00	17.51	7.290	-0.15979	7.13975	0.0

32.6659	66.7676	-1.19	-0.10	0.00	17.51	7.290	0.08950	7.14287	0.0
32.6859	66.7676	-1.19	-0.10	0.00	17.51	7.290	0.08701	7.14290	4.0
32.7059	66.7676	-1.19	-0.10	0.00	17.51	7.290	0.08452	7.14293	0.0
32.7259	66.7676	-1.19	-0.10	0.00	17.51	7.290	0.08202	7.14296	2.0
32.7459	66.7676	-1.19	-0.10	0.00	17.51	7.290	0.07953	7.14299	2.0
32.7659	66.7676	-1.19	-0.10	0.00	17.51	7.290	0.07704	7.14301	4.0
32.7859	66.7676	-1.19	-0.10	0.00	17.51	7.290	0.07454	7.14304	2.0
32.8059	66.7676	-1.19	-0.10	0.00	17.51	7.290	0.07205	7.14306	0.0
32.8259	66.7676	-1.19	-0.10	0.00	17.51	7.290	0.06956	7.14309	2.0
32.8459	66.7676	-1.19	-0.10	0.00	17.51	7.290	0.06706	7.14311	0.0
32.8659	66.7676	-1.19	-0.10	0.00	17.51	7.290	0.06457	7.14314	0.0
32.8859	66.7676	-1.19	-0.10	0.00	17.51	7.290	0.06208	7.14316	2.0
32.9059	66.7676	-1.19	-0.10	0.00	17.51	7.290	0.05958	7.14318	0.0
32.9259	66.7676	-1.19	-0.10	0.00	17.51	7.290	0.05709	7.14320	2.0
32.9459	66.7676	-1.19	-0.10	0.00	17.51	7.290	0.05460	7.14322	0.0
32.9659	66.7676	-1.19	-0.10	0.00	17.51	7.290	0.05210	7.14324	2.0
32.9859	66.7676	-1.19	-0.10	0.00	17.51	7.290	0.04961	7.14326	2.0
33.0059	66.7676	-1.19	-0.10	0.00	17.51	7.290	0.04711	7.14327	0.0
33.0259	66.7676	-1.19	-0.10	0.00	17.51	7.290	0.04462	7.14329	0.0
33.0459	66.7676	-1.19	-0.10	0.00	17.51	7.290	0.04213	7.14330	0.0
33.0659	66.7676	-1.19	-0.10	0.00	17.51	7.290	0.03963	7.14332	0.0
33.0859	66.7676	-1.19	-0.10	0.00	17.51	7.290	0.03714	7.14333	0.0
33.1059	66.7676	-1.19	-0.10	0.00	17.51	7.290	0.03465	7.14334	4.0
33.1259	66.7676	-1.19	-0.10	0.00	17.51	7.290	0.03215	7.14336	0.0
33.1459	66.7676	-1.19	-0.10	0.00	17.51	7.290	0.02966	7.14337	2.0
33.1659	66.7676	-1.19	-0.10	0.00	17.51	7.290	0.02717	7.14338	0.0
33.1859	66.7676	-1.19	-0.10	0.00	17.51	7.290	0.02467	7.14339	0.0
33.2059	66.7676	-1.19	-0.10	0.00	17.51	7.290	0.02218	7.14339	0.0
33.2259	66.7676	-1.19	-0.10	0.00	17.51	7.290	0.01969	7.14340	2.0
33.2459	66.7676	-1.19	-0.10	0.00	17.51	7.290	0.01719	7.14341	4.0
33.2659	66.7676	-1.19	-0.10	0.00	17.51	7.290	0.01470	7.14341	2.0
33.2859	66.7676	-1.19	-0.10	0.00	17.51	7.290	0.01221	7.14342	2.0
33.3059	66.7676	-1.19	-0.10	0.00	17.51	7.290	0.00971	7.14342	0.0
33.3259	66.7676	-1.19	-0.10	0.00	17.51	7.290	0.00722	7.14342	0.0
33.3459	66.7676	-1.19	-0.10	0.00	17.51	7.290	0.00473	7.14343	0.0
33.3659	66.7676	-1.19	-0.10	0.00	17.51	7.290	0.00223	7.14343	0.0
33.3859	66.7676	-1.19	-0.10	0.00	17.51	7.290	-0.00026	7.14343	0.0
33.4059	66.7676	-1.19	-0.10	0.00	17.51	7.290	-0.00276	7.14343	0.0
33.4259	66.7676	-1.19	-0.10	0.00	17.51	7.290	-0.00525	7.14343	0.0
33.4459	66.7676	-1.19	-0.10	0.00	17.51	7.290	-0.00774	7.14342	0.0
33.4659	66.7676	-1.19	-0.10	0.00	17.51	7.290	-0.01024	7.14342	2.0
33.4859	66.7676	-1.19	-0.10	0.00	17.51	7.290	-0.01273	7.14342	0.0
33.5059	66.7676	-1.19	-0.10	0.00	17.51	7.290	-0.01522	7.14341	0.0
33.5259	66.7676	-1.19	-0.10	0.00	17.51	7.290	-0.01772	7.14341	0.0
33.5459	66.7676	-1.19	-0.10	0.00	17.51	7.290	-0.02021	7.14340	0.0
33.5659	66.7676	-1.19	-0.10	0.00	17.51	7.290	-0.02270	7.14339	2.0
33.5859	66.7676	-1.19	-0.10	0.00	17.51	7.290	-0.02520	7.14338	0.0
33.6059	66.7676	-1.19	-0.10	0.00	17.51	7.290	-0.02769	7.14337	0.0
33.6259	66.7676	-1.19	-0.10	0.00	17.51	7.290	-0.03018	7.14336	2.0
33.6459	66.7676	-1.19	-0.10	0.00	17.51	7.290	-0.03268	7.14335	2.0
33.6659	66.7676	-1.19	-0.10	0.00	17.51	7.290	-0.03517	7.14334	4.0
33.6859	66.7676	-1.19	-0.10	0.00	17.51	7.290	-0.03766	7.14333	0.0
33.7059	66.7676	-1.19	-0.10	0.00	17.51	7.290	-0.04016	7.14331	0.0
33.7259	66.7676	-1.19	-0.10	0.00	17.51	7.290	-0.04265	7.14330	0.0
33.7459	66.7676	-1.19	-0.10	0.00	17.51	7.290	-0.04515	7.14329	0.0
33.7659	66.7676	-1.19	-0.10	0.00	17.51	7.290	-0.04764	7.14327	0.0
33.7859	66.7676	-1.19	-0.10	0.00	17.51	7.290	-0.05013	7.14325	2.0
33.8059	66.7676	-1.19	-0.10	0.00	17.51	7.290	-0.05263	7.14323	4.0
33.8259	66.7676	-1.19	-0.10	0.00	17.51	7.290	-0.05512	7.14322	0.0
33.8459	66.7676	-1.19	-0.10	0.00	17.51	7.290	-0.05761	7.14320	0.0
33.8659	66.7676	-1.19	-0.10	0.00	17.51	7.290	-0.06011	7.14317	0.0
33.8859	66.7676	-1.19	-0.10	0.00	17.51	7.290	-0.06260	7.14315	2.0
33.9059	66.7676	-1.19	-0.10	0.00	17.51	7.290	-0.06509	7.14313	0.0
33.9259	66.7676	-1.19	-0.10	0.00	17.51	7.290	-0.06759	7.14311	0.0
33.9459	66.7676	-1.19	-0.10	0.00	17.51	7.290	-0.07008	7.14308	2.0
33.9659	66.7676	-1.19	-0.10	0.00	17.51	7.290	-0.07257	7.14306	0.0
33.9859	66.7676	-1.19	-0.10	0.00	17.51	7.290	-0.07507	7.14303	0.0
34.0059	66.7676	-1.19	-0.10	0.00	17.51	7.290	-0.07756	7.14301	0.0
34.0259	66.7676	-1.19	-0.10	0.00	17.51	7.290	-0.08005	7.14298	4.0
34.0459	66.7676	-1.19	-0.10	0.00	17.51	7.290	-0.08255	7.14295	2.0
34.0659	66.7676	-1.19	-0.10	0.00	17.51	7.290	-0.08504	7.14292	2.0
34.0859	66.7676	-1.19	-0.10	0.00	17.51	7.290	-0.08753	7.14289	2.0
34.1059	66.7676	-1.19	-0.10	0.00	17.51	7.290	-0.09003	7.14286	0.0
34.1259	66.7676	-1.19	-0.10	0.00	17.51	7.290	-0.09252	7.14283	0.0
34.1459	66.7676	-1.19	-0.10	0.00	17.51	7.290	-0.09501	7.14280	0.0
34.1659	66.7676	-1.19	-0.10	0.00	17.51	7.290	-0.09751	7.14276	2.0
34.1859	66.7676	-1.19	-0.10	0.00	17.51	7.290	-0.10000	7.14273	0.0
34.2059	66.7676	-1.19	-0.10	0.00	17.51	7.290	-0.10249	7.14269	2.0
34.2259	66.7676	-1.19	-0.10	0.00	17.51	7.290	-0.10499	7.14266	0.0
34.2459	66.7676	-1.19	-0.10	0.00	17.51	7.290	-0.10748	7.14262	0.0
34.2659	66.7676	-1.19	-0.10	0.00	17.51	7.290	-0.10997	7.14258	0.0
34.2859	66.7676	-1.19	-0.10	0.00	17.51	7.290	-0.11247	7.14254	2.0
34.3059	66.7676	-1.19	-0.10	0.00	17.51	7.290	-0.11496	7.14250	0.0
34.3259	66.7676	-1.19	-0.10	0.00	17.51	7.290	-0.11745	7.14246	0.0
34.3459	66.7676	-1.19	-0.10	0.00	17.51	7.290	-0.11995	7.14242	2.0
34.3659	66.7676	-1.19	-0.10	0.00	17.51	7.290	-0.12244	7.14238	0.0
34.3859	66.7676	-1.19	-0.10	0.00	17.51	7.290	-0.12493	7.14234	0.0
34.4059	66.7676	-1.19	-0.10	0.00	17.51	7.290	-0.12742	7.14229	2.0
34.4259	66.7676	-1.19	-0.10	0.00	17.51	7.290	-0.12992	7.14225	2.0
34.4459	66.7676	-1.19	-0.10	0.00	17.51	7.290	-0.13241	7.14220	0.0
34.4659	66.7676	-1.19	-0.10	0.00	17.51	7.290	-0.13490	7.14215	0.0
34.4859	66.7676	-1.19	-0.10	0.00	17.51	7.290	-0.13740	7.14211	0.0
34.5059	66.7676	-1.19	-0.10	0.00	17.51	7.290	-0.13989	7.14206	4.0
34.5259	66.7676	-1.19	-0.10	0.00	17.51	7.290	-0.14238	7.14201	0.0
34.5459	66.7676	-1.19	-0.10	0.00	17.51	7.290	-0.14488	7.14196	0.0
34.5659	66.7676	-1.19	-0.10	0.00	17.51	7.290	-0.14737	7.14191	0.0
34.5859	66.7676	-1.19	-0.10	0.00	17.51	7.290	-0.14986	7.14186	4.0
34.6059	66.7676	-1.19	-0.10	0.00	17.51	7.290	-0.15236	7.14180	2.0
34.6259	66.7676	-1.19	-0.10	0.00	17.51	7.290	-0.15485	7.14175	0.0
[...]
36.0659	69.5676	-1.19	-0.10	0.00	17.51	7.290	-0.16571	7.40429	2.0

34.0759	69.5876	-1.19	-0.10	0.00	17.51	7.290	0.09282	7.40743	0.0
34.0959	69.5876	-1.19	-0.10	0.00	17.51	7.290	0.09023	7.40746	0.0
34.1159	69.5876	-1.19	-0.10	0.00	17.51	7.290	0.08765	7.40749	0.0
34.1359	69.5876	-1.19	-0.10	0.00	17.51	7.290	0.08506	7.40752	2.0
34.1559	69.5876	-1.19	-0.10	0.00	17.51	7.290	0.08248	7.40755	0.0
34.1759	69.5876	-1.19	-0.10	0.00	17.51	7.290	0.07989	7.40758	0.0
34.1959	69.5876	-1.19	-0.10	0.00	17.51	7.290	0.07730	7.40760	0.0
34.2159	69.5876	-1.19	-0.10	0.00	17.51	7.290	0.07472	7.40763	0.0
34.2359	69.5876	-1.19	-0.10	0.00	17.51	7.290	0.07213	7.40766	4.0
34.2559	69.5876	-1.19	-0.10	0.00	17.51	7.290	0.06955	7.40768	0.0
34.2759	69.5876	-1.19	-0.10	0.00	17.51	7.290	0.06696	7.40770	0.0
34.2959	69.5876	-1.19	-0.10	0.00	17.51	7.290	0.06437	7.40773	4.0
34.3159	69.5876	-1.19	-0.10	0.00	17.51	7.290	0.06179	7.40775	0.0
34.3359	69.5876	-1.19	-0.10	0.00	17.51	7.290	0.05920	7.40777	2.0
34.3559	69.5876	-1.19	-0.10	0.00	17.51	7.290	0.05662	7.40779	2.0
34.3759	69.5876	-1.19	-0.10	0.00	17.51	7.290	0.05403	7.40781	2.0
34.3959	69.5876	-1.19	-0.10	0.00	17.51	7.290	0.05145	7.40783	2.0
34.4159	69.5876	-1.19	-0.10	0.00	17.51	7.290	0.04886	7.40785	0.0
34.4359	69.5876	-1.19	-0.10	0.00	17.51	7.290	0.04627	7.40786	2.0
34.4559	69.5876	-1.19	-0.10	0.00	17.51	7.290	0.04369	7.40788	0.0
34.4759	69.5876	-1.19	-0.10	0.00	17.51	7.290	0.04110	7.40789	0.0
34.4959	69.5876	-1.19	-0.10	0.00	17.51	7.290	0.03852	7.40791	0.0
34.5159	69.5876	-1.19	-0.10	0.00	17.51	7.290	0.03593	7.40792	0.0
34.5359	69.5876	-1.19	-0.10	0.00	17.51	7.290	0.03334	7.40793	4.0
34.5559	69.5876	-1.19	-0.10	0.00	17.51	7.290	0.03076	7.40794	2.0
34.5759	69.5876	-1.19	-0.10	0.00	17.51	7.290	0.02817	7.40795	2.0
34.5959	69.5876	-1.19	-0.10	0.00	17.51	7.290	0.02559	7.40796	0.0
34.6159	69.5876	-1.19	-0.10	0.00	17.51	7.290	0.02300	7.40797	4.0
34.6359	69.5876	-1.19	-0.10	0.00	17.51	7.290	0.02042	7.40798	6.0
34.6559	69.5876	-1.19	-0.10	0.00	17.51	7.290	0.01783	7.40799	0.0
34.6759	69.5876	-1.19	-0.10	0.00	17.51	7.290	0.01524	7.40799	2.0
34.6959	69.5876	-1.19	-0.10	0.00	17.51	7.290	0.01266	7.40800	2.0
34.7159	69.5876	-1.19	-0.10	0.00	17.51	7.290	0.01007	7.40800	0.0
34.7359	69.5876	-1.19	-0.10	0.00	17.51	7.290	0.00749	7.40800	0.0
34.7559	69.5876	-1.19	-0.10	0.00	17.51	7.290	0.00490	7.40801	6.0
34.7759	69.5876	-1.19	-0.10	0.00	17.51	7.290	0.00231	7.40801	2.0
34.7959	69.5876	-1.19	-0.10	0.00	17.51	7.290	-0.00027	7.40801	0.0
34.8159	69.5876	-1.19	-0.10	0.00	17.51	7.290	-0.00286	7.40801	0.0
34.8359	69.5876	-1.19	-0.10	0.00	17.51	7.290	-0.00544	7.40801	2.0
34.8559	69.5876	-1.19	-0.10	0.00	17.51	7.290	-0.00803	7.40800	4.0
34.8759	69.5876	-1.19	-0.10	0.00	17.51	7.290	-0.01062	7.40800	6.0
34.8959	69.5876	-1.19	-0.10	0.00	17.51	7.290	-0.01320	7.40800	0.0
34.9159	69.5876	-1.19	-0.10	0.00	17.51	7.290	-0.01579	7.40799	2.0
34.9359	69.5876	-1.19	-0.10	0.00	17.51	7.290	-0.01837	7.40798	2.0
34.9559	69.5876	-1.19	-0.10	0.00	17.51	7.290	-0.02096	7.40798	2.0
34.9759	69.5876	-1.19	-0.10	0.00	17.51	7.290	-0.02354	7.40797	2.0
34.9959	69.5876	-1.19	-0.10	0.00	17.51	7.290	-0.02613	7.40796	4.0
35.0159	69.5876	-1.19	-0.10	0.00	17.51	7.290	-0.02872	7.40795	2.0
35.0359	69.5876	-1.19	-0.10	0.00	17.51	7.290	-0.03130	7.40794	0.0
35.0559	69.5876	-1.19	-0.10	0.00	17.51	7.290	-0.03389	7.40793	4.0
35.0759	69.5876	-1.19	-0.10	0.00	17.51	7.290	-0.03647	7.40792	0.0
35.0959	69.5876	-1.19	-0.10	0.00	17.51	7.290	-0.03906	7.40790	2.0
35.1159	69.5876	-1.19	-0.10	0.00	17.51	7.290	-0.04165	7.40789	8.0
35.1359	69.5876	-1.19	-0.10	0.00	17.51	7.290	-0.04423	7.40787	0.0
35.1559	69.5876	-1.19	-0.10	0.00	17.51	7.290	-0.04682	7.40786	0.0
35.1759	69.5876	-1.19	-0.10	0.00	17.51	7.290	-0.04940	7.40784	4.0
35.1959	69.5876	-1.19	-0.10	0.00	17.51	7.290	-0.05199	7.40782	0.0
35.2159	69.5876	-1.19	-0.10	0.00	17.51	7.290	-0.05457	7.40781	2.0
35.2359	69.5876	-1.19	-0.10	0.00	17.51	7.290	-0.05716	7.40779	0.0
35.2559	69.5876	-1.19	-0.10	0.00	17.51	7.290	-0.05975	7.40777	0.0
35.2759	69.5876	-1.19	-0.10	0.00	17.51	7.290	-0.06233	7.40774	0.0
35.2959	69.5876	-1.19	-0.10	0.00	17.51	7.290	-0.06492	7.40772	0.0
35.3159	69.5876	-1.19	-0.10	0.00	17.51	7.290	-0.06750	7.40770	6.0
35.3359	69.5876	-1.19	-0.10	0.00	17.51	7.290	-0.07009	7.40768	2.0
35.3559	69.5876	-1.19	-0.10	0.00	17.51	7.290	-0.07268	7.40765	0.0
35.3759	69.5876	-1.19	-0.10	0.00	17.51	7.290	-0.07526	7.40762	0.0
35.3959	69.5876	-1.19	-0.10	0.00	17.51	7.290	-0.07785	7.40760	4.0
35.4159	69.5876	-1.19	-0.10	0.00	17.51	7.290	-0.08043	7.40757	2.0
35.4359	69.5876	-1.19	-0.10	0.00	17.51	7.290	-0.08302	7.40754	0.0
35.4559	69.5876	-1.19	-0.10	0.00	17.51	7.290	-0.08560	7.40751	2.0
35.4759	69.5876	-1.19	-0.10	0.00	17.51	7.290	-0.08819	7.40748	2.0
35.4959	69.5876	-1.19	-0.10	0.00	17.51	7.290	-0.09078	7.40745	0.0
35.5159	69.5876	-1.19	-0.10	0.00	17.51	7.290	-0.09336	7.40742	0.0
35.5359	69.5876	-1.19	-0.10	0.00	17.51	7.290	-0.09595	7.40739	0.0
35.5559	69.5876	-1.19	-0.10	0.00	17.51	7.290	-0.09853	7.40735	4.0
35.5759	69.5876	-1.19	-0.10	0.00	17.51	7.290	-0.10112	7.40732	0.0
35.5959	69.5876	-1.19	-0.10	0.00	17.51	7.290	-0.10370	7.40728	0.0
35.6159	69.5876	-1.19	-0.10	0.00	17.51	7.290	-0.10629	7.40724	2.0
35.6359	69.5876	-1.19	-0.10	0.00	17.51	7.290	-0.10887	7.40721	2.0
35.6559	69.5876	-1.19	-0.10	0.00	17.51	7.290	-0.11146	7.40717	0.0
35.6759	69.5876	-1.19	-0.10	0.00	17.51	7.290	-0.11405	7.40713	4.0
35.6959	69.5876	-1.19	-0.10	0.00	17.51	7.290	-0.11663	7.40709	2.0
35.7159	69.5876	-1.19	-0.10	0.00	17.51	7.290	-0.11922	7.40705	0.0
35.7359	69.5876	-1.19	-0.10	0.00	17.51	7.290	-0.12180	7.40701	0.0
35.7559	69.5876	-1.19	-0.10	0.00	17.51	7.290	-0.12439	7.40696	2.0
35.7759	69.5876	-1.19	-0.10	0.00	17.51	7.290	-0.12697	7.40692	8.0
35.7959	69.5876	-1.19	-0.10	0.00	17.51	7.290	-0.12956	7.40687	0.0
35.8159	69.5876	-1.19	-0.10	0.00	17.51	7.290	-0.13214	7.40683	0.0
35.8359	69.5876	-1.19	-0.10	0.00	17.51	7.290	-0.13473	7.40678	2.0
35.8559	69.5876	-1.19	-0.10	0.00	17.51	7.290	-0.13732	7.40673	0.0
35.8759	69.5876	-1.19	-0.10	0.00	17.51	7.290	-0.13990	7.40669	0.0
35.8959	69.5876	-1.19	-0.10	0.00	17.51	7.290	-0.14249	7.40664	0.0
35.9159	69.5876	-1.19	-0.10	0.00	17.51	7.290	-0.14507	7.40659	0.0
35.9359	69.5876	-1.19	-0.10	0.00	17.51	7.290	-0.14766	7.40654	0.0
35.9559	69.5876	-1.19	-0.10	0.00	17.51	7.290	-0.15024	7.40648	4.0
35.9759	69.5876	-1.19	-0.10	0.00	17.51	7.290	-0.15283	7.40643	2.0
35.9959	69.5876	-1.19	-0.10	0.00	17.51	7.290	-0.15541	7.40638	0.0
36.0159	69.5876	-1.19	-0.10	0.00	17.51	7.290	-0.15800	7.40632	0.0
36.0359	69.5876	-1.19	-0.10	0.00	17.51	7.290	-0.16058	7.40627	0.0
36.0559	69.5876	-1.19	-0.10	0.00	17.51	7.290	-0.16317	7.40621	0.0
36.0759	69.5876	-1.19	-0.10	0.00	17.51	7.290	-0.16575	7.40615	0.0

34.0859	69.6076	-1.19	-0.10	0.00	17.51	7.290	0.09284	7.40929	0.0
34.1059	69.6076	-1.19	-0.10	0.00	17.51	7.290	0.09025	7.40932	0.0
34.1259	69.6076	-1.19	-0.10	0.00	17.51	7.290	0.08767	7.40935	0.0
34.1459	69.6076	-1.19	-0.10	0.00	17.51	7.290	0.08508	7.40938	0.0
34.1659	69.6076	-1.19	-0.10	0.00	17.51	7.290	0.08250	7.40941	2.0
34.1859	69.6076	-1.19	-0.10	0.00	17.51	7.290	0.07991	7.40944	0.0
34.2059	69.6076	-1.19	-0.10	0.00	17.51	7.290	0.07732	7.40946	2.0
34.2259	69.6076	-1.19	-0.10	0.00	17.51	7.290	0.07474	7.40949	2.0
34.2459	69.6076	-1.19	-0.10	0.00	17.51	7.290	0.07215	7.40952	0.0
34.2659	69.6076	-1.19	-0.10	0.00	17.51	7.290	0.06956	7.40954	2.0
34.2859	69.6076	-1.19	-0.10	0.00	17.51	7.290	0.06698	7.40956	4.0
34.3059	69.6076	-1.19	-0.10	0.00	17.51	7.290	0.06439	7.40959	0.0
34.3259	69.6076	-1.19	-0.10	0.00	17.51	7.290	0.06180	7.40961	6.0
34.3459	69.6076	-1.19	-0.10	0.00	17.51	7.290	0.05922	7.40963	0.0
34.3659	69.6076	-1.19	-0.10	0.00	17.51	7.290	0.05663	7.40965	2.0
34.3859	69.6076	-1.19	-0.10	0.00	17.51	7.290	0.05405	7.40967	0.0
34.4059	69.6076	-1.19	-0.10	0.00	17.51	7.290	0.05146	7.40969	0.0
34.4259	69.6076	-1.19	-0.10	0.00	17.51	7.290	0.04887	7.40971	2.0
34.4459	69.6076	-1.19	-0.10	0.00	17.51	7.290	0.04629	7.40972	0.0
34.4659	69.6076	-1.19	-0.10	0.00	17.51	7.290	0.04370	7.40974	4.0
34.4859	69.6076	-1.19	-0.10	0.00	17.51	7.290	0.04111	7.40975	0.0
34.5059	69.6076	-1.19	-0.10	0.00	17.51	7.290	0.03853	7.40977	0.0
34.5259	69.6076	-1.19	-0.10	0.00	17.51	7.290	0.03594	7.40978	0.0
34.5459	69.6076	-1.19	-0.10	0.00	17.51	7.290	0.03335	7.40979	2.0
34.5659	69.6076	-1.19	-0.10	0.00	17.51	7.290	0.03077	7.40980	4.0
34.5859	69.6076	-1.19	-0.10	0.00	17.51	7.290	0.02818	7.40981	2.0
34.6059	69.6076	-1.19	-0.10	0.00	17.51	7.290	0.02559	7.40982	0.0
34.6259	69.6076	-1.19	-0.10	0.00	17.51	7.290	0.02301	7.40983	2.0
34.6459	69.6076	-1.19	-0.10	0.00	17.51	7.290	0.02042	7.40984	0.0
34.6659	69.6076	-1.19	-0.10	0.00	17.51	7.290	0.01783	7.40985	0.0
34.6859	69.6076	-1.19	-0.10	0.00	17.51	7.290	0.01525	7.40985	2.0
34.7059	69.6076	-1.19	-0.10	0.00	17.51	7.290	0.01266	7.40986	0.0
34.7259	69.6076	-1.19	-0.10	0.00	17.51	7.290	0.01007	7.40986	4.0
34.7459	69.6076	-1.19	-0.10	0.00	17.51	7.290	0.00749	7.40986	2.0
34.7659	69.6076	-1.19	-0.10	0.00	17.51	7.290	0.00490	7.40987	2.0
34.7859	69.6076	-1.19	-0.10	0.00	17.51	7.290	0.00231	7.40987	4.0
34.8059	69.6076	-1.19	-0.10	0.00	17.51	7.290	-0.00027	7.40987	0.0
34.8259	69.6076	-1.19	-0.10	0.00	17.51	7.290	-0.00286	7.40987	2.0
34.8459	69.6076	-1.19	-0.10	0.00	17.51	7.290	-0.00544	7.40987	2.0
34.8659	69.6076	-1.19	-0.10	0.00	17.51	7.290	-0.00803	7.40986	0.0
34.8859	69.6076	-1.19	-0.10	0.00	17.51	7.290	-0.01062	7.40986	0.0
34.9059	69.6076	-1.19	-0.10	0.00	17.51	7.290	-0.01320	7.40986	2.0
34.9259	69.6076	-1.19	-0.10	0.00	17.51	7.290	-0.01579	7.40985	2.0
34.9459	69.6076	-1.19	-0.10	0.00	17.51	7.290	-0.01838	7.40984	2.0
34.9659	69.6076	-1.19	-0.10	0.00	17.51	7.290	-0.02096	7.40984	4.0
34.9859	69.6076	-1.19	-0.10	0.00	17.51	7.290	-0.02355	7.40983	0.0
35.0059	69.6076	-1.19	-0.10	0.00	17.51	7.290	-0.02614	7.40982	4.0
35.0259	69.6076	-1.19	-0.10	0.00	17.51	7.290	-0.02872	7.40981	2.0
35.0459	69.6076	-1.19	-0.10	0.00	17.51	7.290	-0.03131	7.40980	0.0
35.0659	69.6076	-1.19	-0.10	0.00	17.51	7.290	-0.03390	7.40979	2.0
35.0859	69.6076	-1.19	-0.10	0.00	17.51	7.290	-0.03648	7.40978	4.0
35.1059	69.6076	-1.19	-0.10	0.00	17.51	7.290	-0.03907	7.40976	4.0
35.1259	69.6076	-1.19	-0.10	0.00	17.51	7.290	-0.04166	7.40975	0.0
35.1459	69.6076	-1.19	-0.10	0.00	17.51	7.290	-0.04424	7.40974	0.0
35.1659	69.6076	-1.19	-0.10	0.00	17.51	7.290	-0.04683	7.40972	0.0
35.1859	69.6076	-1.19	-0.10	0.00	17.51	7.290	-0.04942	7.40970	2.0
35.2059	69.6076	-1.19	-0.10	0.00	17.51	7.290	-0.05200	7.40969	0.0
35.2259	69.6076	-1.19	-0.10	0.00	17.51	7.290	-0.05459	7.40967	2.0
35.2459	69.6076	-1.19	-0.10	0.00	17.51	7.290	-0.05717	7.40965	0.0
35.2659	69.6076	-1.19	-0.10	0.00	17.51	7.290	-0.05976	7.40963	2.0
35.2859	69.6076	-1.19	-0.10	0.00	17.51	7.290	-0.06235	7.40961	2.0
35.3059	69.6076	-1.19	-0.10	0.00	17.51	7.290	-0.06493	7.40958	2.0
35.3259	69.6076	-1.19	-0.10	0.00	17.51	7.290	-0.06752	7.40956	2.0
35.3459	69.6076	-1.19	-0.10	0.00	17.51	7.290	-0.07011	7.40954	2.0
35.3659	69.6076	-1.19	-0.10	0.00	17.51	7.290	-0.07269	7.40951	2.0
35.3859	69.6076	-1.19	-0.10	0.00	17.51	7.290	-0.07528	7.40949	2.0
35.4059	69.6076	-1.19	-0.10	0.00	17.51	7.290	-0.07787	7.40946	4.0
35.4259	69.6076	-1.19	-0.10	0.00	17.51	7.290	-0.08045	7.40943	2.0
35.4459	69.6076	-1.19	-0.10	0.00	17.51	7.290	-0.08304	7.40940	2.0
35.4659	69.6076	-1.19	-0.10	0.00	17.51	7.290	-0.08563	7.40937	0.0
35.4859	69.6076	-1.19	-0.10	0.00	17.51	7.290	-0.08821	7.40934	0.0
35.5059	69.6076	-1.19	-0.10	0.00	17.51	7.290	-0.09080	7.40931	2.0
35.5259	69.6076	-1.19	-0.10	0.00	17.51	7.290	-0.09338	7.40928	2.0
35.5459	69.6076	-1.19	-0.10	0.00	17.51	7.290	-0.09597	7.40925	0.0
35.5659	69.6076	-1.19	-0.10	0.00	17.51	7.290	-0.09856	7.40921	0.0
35.5859	69.6076	-1.19	-0.10	0.00	17.51	7.290	-0.10114	7.40918	0.0
35.6059	69.6076	-1.19	-0.10	0.00	17.51	7.290	-0.10373	7.40914	2.0
35.6259	69.6076	-1.19	-0.10	0.00	17.51	7.290	-0.10632	7.40910	0.0
35.6459	69.6076	-1.19	-0.10	0.00	17.51	7.290	-0.10890	7.40907	2.0
35.6659	69.6076	-1.19	-0.10	0.00	17.51	7.290	-0.11149	7.40903	0.0
35.6859	69.6076	-1.19	-0.10	0.00	17.51	7.290	-0.11407	7.40899	0.0
35.7059	69.6076	-1.19	-0.10	0.00	17.51	7.290	-0.11666	7.40895	4.0
35.7259	69.6076	-1.19	-0.10	0.00	17.51	7.290	-0.11925	7.40891	2.0
35.7459	69.6076	-1.19	-0.10	0.00	17.51	7.290	-0.12183	7.40887	0.0
35.7659	69.6076	-1.19	-0.10	0.00	17.51	7.290	-0.12442	7.40882	0.0
35.7859	69.6076	-1.19	-0.10	0.00	17.51	7.290	-0.12701	7.40878	2.0
35.8059	69.6076	-1.19	-0.10	0.00	17.51	7.290	-0.12959	7.40873	2.0
35.8259	69.6076	-1.19	-0.10	0.00	17.51	7.290	-0.13218	7.40869	2.0
35.8459	69.6076	-1.19	-0.10	0.00	17.51	7.290	-0.13476	7.40864	2.0
35.8659	69.6076	-1.19	-0.10	0.00	17.51	7.290	-0.13735	7.40859	2.0
35.8859	69.6076	-1.19	-0.10	0.00	17.51	7.290	-0.13994	7.40855	0.0
35.9059	69.6076	-1.19	-0.10	0.00	17.51	7.290	-0.14252	7.40850	4.0
35.9259	69.6076	-1.19	-0.10	0.00	17.51	7.290	-0.14511	7.40845	0.0
35.9459	69.6076	-1.19	-0.10	0.00	17.51	7.290	-0.14769	7.40840	2.0
35.9659	69.6076	-1.19	-0.10	0.00	17.51	7.290	-0.15028	7.40834	0.0
35.9859	69.6076	-1.19	-0.10	0.00	17.51	7.290	-0.15287	7.40829	0.0
36.0059	69.6076	-1.19	-0.10	0.00	17.51	7.290	-0.15545	7.40824	2.0
36.0259	69.6076	-1.19	-0.10	0.00	17.51	7.290	-0.15804	7.40818	0.0
36.0459	69.6076	-1.19	-0.10	0.00	17.51	7.290	-0.16062	7.40813	0.0
36.0659	69.6076	-1.19	-0.10	0.00	17.51	7.290	-0.16321	7.40807	0.0
36.0859	69.6076	-1.19	-0.10	0.00	17.51	7.290	-0.16580	7.40801	6.0

34.0959	69.6276	-1.19	-0.10	0.00	17.51	7.290	0.09286	7.41115	0.0
34.1159	69.6276	-1.19	-0.10	0.00	17.51	7.290	0.09028	7.41118	0.0
34.1359	69.6276	-1.19	-0.10	0.00	17.51	7.290	0.08769	7.41121	2.0
34.1559	69.6276	-1.19	-0.10	0.00	17.51	7.290	0.08510	7.41124	0.0
34.1759	69.6276	-1.19	-0.10	0.00	17.51	7.290	0.08252	7.41127	0.0
34.1959	69.6276	-1.19	-0.10	0.00	17.51	7.290	0.07993	7.41130	2.0
34.2159	69.6276	-1.19	-0.10	0.00	17.51	7.290	0.07734	7.41132	2.0
34.2359	69.6276	-1.19	-0.10	0.00	17.51	7.290	0.07476	7.41135	0.0
34.2559	69.6276	-1.19	-0.10	0.00	17.51	7.290	0.07217	7.41138	4.0
34.2759	69.6276	-1.19	-0.10	0.00	17.51	7.290	0.06958	7.41140	0.0
34.2959	69.6276	-1.19	-0.10	0.00	17.51	7.290	0.06699	7.41143	2.0
34.3159	69.6276	-1.19	-0.10	0.00	17.51	7.290	0.06441	7.41145	2.0
34.3359	69.6276	-1.19	-0.10	0.00	17.51	7.290	0.06182	7.41147	2.0
34.3559	69.6276	-1.19	-0.10	0.00	17.51	7.290	0.05923	7.41149	2.0
34.3759	69.6276	-1.19	-0.10	0.00	17.51	7.290	0.05665	7.41151	2.0
34.3959	69.6276	-1.19	-0.10	0.00	17.51	7.290	0.05406	7.41153	2.0
34.4159	69.6276	-1.19	-0.10	0.00	17.51	7.290	0.05147	7.41155	0.0
34.4359	69.6276	-1.19	-0.10	0.00	17.51	7.290	0.04888	7.41157	0.0
34.4559	69.6276	-1.19	-0.10	0.00	17.51	7.290	0.04630	7.41158	2.0
34.4759	69.6276	-1.19	-0.10	0.00	17.51	7.290	0.04371	7.41160	0.0
34.4959	69.6276	-1.19	-0.10	0.00	17.51	7.290	0.04112	7.41161	2.0
34.5159	69.6276	-1.19	-0.10	0.00	17.51	7.290	0.03854	7.41163	4.0
34.5359	69.6276	-1.19	-0.10	0.00	17.51	7.290	0.03595	7.41164	2.0
34.5559	69.6276	-1.19	-0.10	0.00	17.51	7.290	0.03336	7.41165	0.0
34.5759	69.6276	-1.19	-0.10	0.00	17.51	7.290	0.03077	7.41166	2.0
34.5959	69.6276	-1.19	-0.10	0.00	17.51	7.290	0.02819	7.41167	0.0
34.6159	69.6276	-1.19	-0.10	0.00	17.51	7.290	0.02560	7.41168	0.0
34.6359	69.6276	-1.19	-0.10	0.00	17.51	7.290	0.02301	7.41169	4.0
34.6559	69.6276	-1.19	-0.10	0.00	17.51	7.290	0.02043	7.41170	4.0
34.6759	69.6276	-1.19	-0.10	0.00	17.51	7.290	0.01784	7.41171	2.0
34.6959	69.6276	-1.19	-0.10	0.00	17.51	7.290	0.01525	7.41171	0.0
34.7159	69.6276	-1.19	-0.10	0.00	17.51	7.290	0.01266	7.41172	0.0
34.7359	69.6276	-1.19	-0.10	0.00	17.51	7.290	0.01008	7.41172	0.0
34.7559	69.6276	-1.19	-0.10	0.00	17.51	7.290	0.00749	7.41172	4.0
34.7759	69.6276	-1.19	-0.10	0.00	17.51	7.290	0.00490	7.41173	4.0
34.7959	69.6276	-1.19	-0.10	0.00	17.51	7.290	0.00232	7.41173	0.0
34.8159	69.6276	-1.19	-0.10	0.00	17.51	7.290	-0.00027	7.41173	0.0
34.8359	69.6276	-1.19	-0.10	0.00	17.51	7.290	-0.00286	7.41173	8.0
34.8559	69.6276	-1.19	-0.10	0.00	17.51	7.290	-0.00545	7.41173	20.0
34.8759	69.6276	-1.19	-0.10	0.00	17.51	7.290	-0.00803	7.41172	2.0
34.8959	69.6276	-1.19	-0.10	0.00	17.51	7.290	-0.01062	7.41172	4.0
34.9159	69.6276	-1.19	-0.10	0.00	17.51	7.290	-0.01321	7.41172	0.0
34.9359	69.6276	-1.19	-0.10	0.00	17.51	7.290	-0.01579	7.41171	0.0
34.9559	69.6276	-1.19	-0.10	0.00	17.51	7.290	-0.01838	7.41171	0.0
34.9759	69.6276	-1.19	-0.10	0.00	17.51	7.290	-0.02097	7.41170	2.0
34.9959	69.6276	-1.19	-0.10	0.00	17.51	7.290	-0.02356	7.41169	4.0
35.0159	69.6276	-1.19	-0.10	0.00	17.51	7.290	-0.02614	7.41168	4.0
35.0359	69.6276	-1.19	-0.10	0.00	17.51	7.290	-0.02873	7.41167	2.0
35.0559	69.6276	-1.19	-0.10	0.00	17.51	7.290	-0.03132	7.41166	2.0
35.0759	69.6276	-1.19	-0.10	0.00	17.51	7.290	-0.03390	7.41165	2.0
35.0959	69.6276	-1.19	-0.10	0.00	17.51	7.290	-0.03649	7.41164	2.0
35.1159	69.6276	-1.19	-0.10	0.00	17.51	7.290	-0.03908	7.41163	8.0
35.1359	69.6276	-1.19	-0.10	0.00	17.51	7.290	-0.04167	7.41161	4.0
35.1559	69.6276	-1.19	-0.10	0.00	17.51	7.290	-0.04425	7.41160	2.0
35.1759	69.6276	-1.19	-0.10	0.00	17.51	7.290	-0.04684	7.41158	4.0
35.1959	69.6276	-1.19	-0.10	0.00	17.51	7.290	-0.04943	7.41156	2.0
35.2159	69.6276	-1.19	-0.10	0.00	17.51	7.290	-0.05201	7.41155	0.0
35.2359	69.6276	-1.19	-0.10	0.00	17.51	7.290	-0.05460	7.41153	6.0
35.2559	69.6276	-1.19	-0.10	0.00	17.51	7.290	-0.05719	7.41151	2.0
35.2759	69.6276	-1.19	-0.10	0.00	17.51	7.290	-0.05978	7.41149	0.0
35.2959	69.6276	-1.19	-0.10	0.00	17.51	7.290	-0.06236	7.41147	4.0
35.3159	69.6276	-1.19	-0.10	0.00	17.51	7.290	-0.06495	7.41144	0.0
35.3359	69.6276	-1.19	-0.10	0.00	17.51	7.290	-0.06754	7.41142	0.0
35.3559	69.6276	-1.19	-0.10	0.00	17.51	7.290	-0.07012	7.41140	2.0
35.3759	69.6276	-1.19	-0.10	0.00	17.51	7.290	-0.07271	7.41137	0.0
35.3959	69.6276	-1.19	-0.10	0.00	17.51	7.290	-0.07530	7.41135	4.0
35.4159	69.6276	-1.19	-0.10	0.00	17.51	7.290	-0.07789	7.41132	0.0
35.4359	69.6276	-1.19	-0.10	0.00	17.51	7.290	-0.08047	7.41129	0.0
35.4559	69.6276	-1.19	-0.10	0.00	17.51	7.290	-0.08306	7.41126	0.0
35.4759	69.6276	-1.19	-0.10	0.00	17.51	7.290	-0.08565	7.41123	2.0
35.4959	69.6276	-1.19	-0.10	0.00	17.51	7.290	-0.08823	7.41120	2.0
35.5159	69.6276	-1.19	-0.10	0.00	17.51	7.290	-0.09082	7.41117	0.0
35.5359	69.6276	-1.19	-0.10	0.00	17.51	7.290	-0.09341	7.41114	2.0
35.5559	69.6276	-1.19	-0.10	0.00	17.51	7.290	-0.09599	7.41111	0.0
35.5759	69.6276	-1.19	-0.10	0.00	17.51	7.290	-0.09858	7.41107	2.0
35.5959	69.6276	-1.19	-0.10	0.00	17.51	7.290	-0.10117	7.41104	0.0
35.6159	69.6276	-1.19	-0.10	0.00	17.51	7.290	-0.10376	7.41100	6.0
35.6359	69.6276	-1.19	-0.10	0.00	17.51	7.290	-0.10634	7.41097	0.0
35.6559	69.6276	-1.19	-0.10	0.00	17.51	7.290	-0.10893	7.41093	0.0
35.6759	69.6276	-1.19	-0.10	0.00	17.51	7.290	-0.11152	7.41089	0.0
35.6959	69.6276	-1.19	-0.10	0.00	17.51	7.290	-0.11410	7.41085	0.0
35.7159	69.6276	-1.19	-0.10	0.00	17.51	7.290	-0.11669	7.41081	4.0
35.7359	69.6276	-1.19	-0.10	0.00	17.51	7.290	-0.11928	7.41077	4.0
35.7559	69.6276	-1.19	-0.10	0.00	17.51	7.290	-0.12186	7.41073	0.0
35.7759	69.6276	-1.19	-0.10	0.00	17.51	7.290	-0.12445	7.41068	0.0
35.7959	69.6276	-1.19	-0.10	0.00	17.51	7.290	-0.12704	7.41064	0.0
35.8159	69.6276	-1.19	-0.10	0.00	17.51	7.290	-0.12962	7.41059	0.0
35.8359	69.6276	-1.19	-0.10	0.00	17.51	7.290	-0.13221	7.41055	2.0
35.8559	69.6276	-1.19	-0.10	0.00	17.51	7.290	-0.13480	7.41050	6.0
35.8759	69.6276	-1.19	-0.10	0.00	17.51	7.290	-0.13738	7.41045	0.0
35.8959	69.6276	-1.19	-0.10	0.00	17.51	7.290	-0.13997	7.41041	0.0
35.9159	69.6276	-1.19	-0.10	0.00	17.51	7.290	-0.14256	7.41036	0.0
35.9359	69.6276	-1.19	-0.10	0.00	17.51	7.290	-0.14514	7.41031	0.0
35.9559	69.6276	-1.19	-0.10	0.00	17.51	7.290	-0.14773	7.41026	2.0
35.9759	69.6276	-1.19	-0.10	0.00	17.51	7.290	-0.15032	7.41020	2.0
35.9959	69.6276	-1.19	-0.10	0.00	17.51	7.290	-0.15290	7.41015	0.0
36.0159	69.6276	-1.19	-0.10	0.00	17.51	7.290	-0.15549	7.41010	4.0
36.0359	69.6276	-1.19	-0.10	0.00	17.51	7.290	-0.15808	7.41004	0.0
36.0559	69.6276	-1.19	-0.10	0.00	17.51	7.290	-0.16066	7.40999	0.0
36.0759	69.6276	-1.19	-0.10	0.00	17.51	7.290	-0.16325	7.40993	0.0
36.0959	69.6276	-1.19	-0.10	0.00	17.51	7.290	-0.16584	7.40987	0.0