File: Data/Omega/2.0deg-2.0deg-rsm-3h10mins_11358-as-grown_224_w-scans.dat
# filename: 2.0deg-2.0deg-rsm-3h10mins_11358-as-grown_224.dat
# reflection: (004)
# type: rotated into a series of omega scans
# x-axis: Omega_2Theta
#
# Omega	2Theta	Phi  	Chi   	X    	Y    	Z    	q_para	q_perp	Intensity
# [deg]	[deg] 	[deg]	[deg] 	[mm] 	[mm] 	[mm] 	[nm-1]	[nm-1]	[counts/s]
6.0787	85.0734	2.82	0.06	10.00	-20.00	7.326	5.21548	7.05914	0.0
6.0987	85.0734	2.82	0.06	10.00	-20.00	7.326	5.21302	7.06096	0.0
6.1187	85.0734	2.82	0.06	10.00	-20.00	7.326	5.21055	7.06278	4.0
6.1387	85.0734	2.82	0.06	10.00	-20.00	7.326	5.20809	7.06460	4.0
6.1587	85.0734	2.82	0.06	10.00	-20.00	7.326	5.20562	7.06641	0.0
6.1787	85.0734	2.82	0.06	10.00	-20.00	7.326	5.20316	7.06823	2.0
6.1987	85.0734	2.82	0.06	10.00	-20.00	7.326	5.20069	7.07005	0.0
6.2187	85.0734	2.82	0.06	10.00	-20.00	7.326	5.19822	7.07186	0.0
6.2387	85.0734	2.82	0.06	10.00	-20.00	7.326	5.19575	7.07367	4.0
6.2587	85.0734	2.82	0.06	10.00	-20.00	7.326	5.19328	7.07549	0.0
6.2787	85.0734	2.82	0.06	10.00	-20.00	7.326	5.19081	7.07730	4.0
6.2987	85.0734	2.82	0.06	10.00	-20.00	7.326	5.18834	7.07911	2.0
6.3187	85.0734	2.82	0.06	10.00	-20.00	7.326	5.18587	7.08092	0.0
6.3387	85.0734	2.82	0.06	10.00	-20.00	7.326	5.18340	7.08273	0.0
6.3587	85.0734	2.82	0.06	10.00	-20.00	7.326	5.18092	7.08454	2.0
6.3787	85.0734	2.82	0.06	10.00	-20.00	7.326	5.17845	7.08635	0.0
6.3987	85.0734	2.82	0.06	10.00	-20.00	7.326	5.17598	7.08816	0.0
6.4187	85.0734	2.82	0.06	10.00	-20.00	7.326	5.17350	7.08996	0.0
6.4387	85.0734	2.82	0.06	10.00	-20.00	7.326	5.17103	7.09177	0.0
6.4587	85.0734	2.82	0.06	10.00	-20.00	7.326	5.16855	7.09357	4.0
6.4787	85.0734	2.82	0.06	10.00	-20.00	7.326	5.16607	7.09538	2.0
6.4987	85.0734	2.82	0.06	10.00	-20.00	7.326	5.16360	7.09718	0.0
6.5187	85.0734	2.82	0.06	10.00	-20.00	7.326	5.16112	7.09898	4.0
6.5387	85.0734	2.82	0.06	10.00	-20.00	7.326	5.15864	7.10078	6.0
6.5587	85.0734	2.82	0.06	10.00	-20.00	7.326	5.15616	7.10258	0.0
6.5787	85.0734	2.82	0.06	10.00	-20.00	7.326	5.15368	7.10438	0.0
6.5987	85.0734	2.82	0.06	10.00	-20.00	7.326	5.15120	7.10618	0.0
6.6187	85.0734	2.82	0.06	10.00	-20.00	7.326	5.14872	7.10798	2.0
6.6387	85.0734	2.82	0.06	10.00	-20.00	7.326	5.14624	7.10978	4.0
6.6587	85.0734	2.82	0.06	10.00	-20.00	7.326	5.14376	7.11157	2.0
6.6787	85.0734	2.82	0.06	10.00	-20.00	7.326	5.14128	7.11337	2.0
6.6987	85.0734	2.82	0.06	10.00	-20.00	7.326	5.13879	7.11516	0.0
6.7187	85.0734	2.82	0.06	10.00	-20.00	7.326	5.13631	7.11695	2.0
6.7387	85.0734	2.82	0.06	10.00	-20.00	7.326	5.13382	7.11875	2.0
6.7587	85.0734	2.82	0.06	10.00	-20.00	7.326	5.13134	7.12054	0.0
6.7787	85.0734	2.82	0.06	10.00	-20.00	7.326	5.12885	7.12233	4.0
6.7987	85.0734	2.82	0.06	10.00	-20.00	7.326	5.12637	7.12412	2.0
6.8187	85.0734	2.82	0.06	10.00	-20.00	7.326	5.12388	7.12591	4.0
6.8387	85.0734	2.82	0.06	10.00	-20.00	7.326	5.12139	7.12770	0.0
6.8587	85.0734	2.82	0.06	10.00	-20.00	7.326	5.11890	7.12948	0.0
6.8787	85.0734	2.82	0.06	10.00	-20.00	7.326	5.11641	7.13127	2.0
6.8987	85.0734	2.82	0.06	10.00	-20.00	7.326	5.11392	7.13305	2.0
6.9187	85.0734	2.82	0.06	10.00	-20.00	7.326	5.11143	7.13484	0.0
6.9387	85.0734	2.82	0.06	10.00	-20.00	7.326	5.10894	7.13662	0.0
6.9587	85.0734	2.82	0.06	10.00	-20.00	7.326	5.10645	7.13841	4.0
6.9787	85.0734	2.82	0.06	10.00	-20.00	7.326	5.10396	7.14019	2.0
6.9987	85.0734	2.82	0.06	10.00	-20.00	7.326	5.10147	7.14197	0.0
7.0187	85.0734	2.82	0.06	10.00	-20.00	7.326	5.09897	7.14375	2.0
7.0387	85.0734	2.82	0.06	10.00	-20.00	7.326	5.09648	7.14553	0.0
7.0587	85.0734	2.82	0.06	10.00	-20.00	7.326	5.09399	7.14731	2.0
7.0787	85.0734	2.82	0.06	10.00	-20.00	7.326	5.09149	7.14909	4.0
7.0987	85.0734	2.82	0.06	10.00	-20.00	7.326	5.08899	7.15086	0.0
7.1187	85.0734	2.82	0.06	10.00	-20.00	7.326	5.08650	7.15264	0.0
7.1387	85.0734	2.82	0.06	10.00	-20.00	7.326	5.08400	7.15441	0.0
7.1587	85.0734	2.82	0.06	10.00	-20.00	7.326	5.08150	7.15619	0.0
7.1787	85.0734	2.82	0.06	10.00	-20.00	7.326	5.07901	7.15796	0.0
7.1987	85.0734	2.82	0.06	10.00	-20.00	7.326	5.07651	7.15973	2.0
7.2187	85.0734	2.82	0.06	10.00	-20.00	7.326	5.07401	7.16150	2.0
7.2387	85.0734	2.82	0.06	10.00	-20.00	7.326	5.07151	7.16328	2.0
7.2587	85.0734	2.82	0.06	10.00	-20.00	7.326	5.06901	7.16505	0.0
7.2787	85.0734	2.82	0.06	10.00	-20.00	7.326	5.06650	7.16681	2.0
7.2987	85.0734	2.82	0.06	10.00	-20.00	7.326	5.06400	7.16858	2.0
7.3187	85.0734	2.82	0.06	10.00	-20.00	7.326	5.06150	7.17035	2.0
7.3387	85.0734	2.82	0.06	10.00	-20.00	7.326	5.05900	7.17212	2.0
7.3587	85.0734	2.82	0.06	10.00	-20.00	7.326	5.05649	7.17388	0.0
7.3787	85.0734	2.82	0.06	10.00	-20.00	7.326	5.05399	7.17565	2.0
7.3987	85.0734	2.82	0.06	10.00	-20.00	7.326	5.05148	7.17741	0.0
7.4187	85.0734	2.82	0.06	10.00	-20.00	7.326	5.04898	7.17917	0.0
7.4387	85.0734	2.82	0.06	10.00	-20.00	7.326	5.04647	7.18093	2.0
7.4587	85.0734	2.82	0.06	10.00	-20.00	7.326	5.04396	7.18270	0.0
7.4787	85.0734	2.82	0.06	10.00	-20.00	7.326	5.04146	7.18446	2.0
7.4987	85.0734	2.82	0.06	10.00	-20.00	7.326	5.03895	7.18622	2.0
7.5187	85.0734	2.82	0.06	10.00	-20.00	7.326	5.03644	7.18797	0.0
7.5387	85.0734	2.82	0.06	10.00	-20.00	7.326	5.03393	7.18973	2.0
7.5587	85.0734	2.82	0.06	10.00	-20.00	7.326	5.03142	7.19149	0.0
7.5787	85.0734	2.82	0.06	10.00	-20.00	7.326	5.02891	7.19324	4.0
7.5987	85.0734	2.82	0.06	10.00	-20.00	7.326	5.02640	7.19500	2.0
7.6187	85.0734	2.82	0.06	10.00	-20.00	7.326	5.02389	7.19675	0.0
7.6387	85.0734	2.82	0.06	10.00	-20.00	7.326	5.02137	7.19851	2.0
7.6587	85.0734	2.82	0.06	10.00	-20.00	7.326	5.01886	7.20026	0.0
7.6787	85.0734	2.82	0.06	10.00	-20.00	7.326	5.01635	7.20201	0.0
7.6987	85.0734	2.82	0.06	10.00	-20.00	7.326	5.01383	7.20376	0.0
7.7187	85.0734	2.82	0.06	10.00	-20.00	7.326	5.01132	7.20551	0.0
7.7387	85.0734	2.82	0.06	10.00	-20.00	7.326	5.00880	7.20726	0.0
7.7587	85.0734	2.82	0.06	10.00	-20.00	7.326	5.00629	7.20901	0.0
7.7787	85.0734	2.82	0.06	10.00	-20.00	7.326	5.00377	7.21075	2.0
7.7987	85.0734	2.82	0.06	10.00	-20.00	7.326	5.00125	7.21250	0.0
7.8187	85.0734	2.82	0.06	10.00	-20.00	7.326	4.99873	7.21425	0.0
7.8387	85.0734	2.82	0.06	10.00	-20.00	7.326	4.99622	7.21599	2.0
7.8587	85.0734	2.82	0.06	10.00	-20.00	7.326	4.99370	7.21773	0.0
7.8787	85.0734	2.82	0.06	10.00	-20.00	7.326	4.99118	7.21948	0.0
7.8987	85.0734	2.82	0.06	10.00	-20.00	7.326	4.98866	7.22122	2.0
7.9187	85.0734	2.82	0.06	10.00	-20.00	7.326	4.98614	7.22296	0.0
7.9387	85.0734	2.82	0.06	10.00	-20.00	7.326	4.98361	7.22470	0.0
7.9587	85.0734	2.82	0.06	10.00	-20.00	7.326	4.98109	7.22644	0.0
7.9787	85.0734	2.82	0.06	10.00	-20.00	7.326	4.97857	7.22818	2.0
7.9987	85.0734	2.82	0.06	10.00	-20.00	7.326	4.97605	7.22991	0.0
8.0187	85.0734	2.82	0.06	10.00	-20.00	7.326	4.97352	7.23165	2.0
8.0387	85.0734	2.82	0.06	10.00	-20.00	7.326	4.97100	7.23339	2.0
8.0587	85.0734	2.82	0.06	10.00	-20.00	7.326	4.96847	7.23512	2.0
8.0787	85.0734	2.82	0.06	10.00	-20.00	7.326	4.96595	7.23686	2.0

6.0887	85.0934	2.82	0.06	10.00	-20.00	7.326	5.21648	7.06048	2.0
6.1087	85.0934	2.82	0.06	10.00	-20.00	7.326	5.21401	7.06230	0.0
6.1287	85.0934	2.82	0.06	10.00	-20.00	7.326	5.21155	7.06412	2.0
6.1487	85.0934	2.82	0.06	10.00	-20.00	7.326	5.20908	7.06594	0.0
6.1687	85.0934	2.82	0.06	10.00	-20.00	7.326	5.20661	7.06776	2.0
6.1887	85.0934	2.82	0.06	10.00	-20.00	7.326	5.20414	7.06957	0.0
6.2087	85.0934	2.82	0.06	10.00	-20.00	7.326	5.20168	7.07139	2.0
6.2287	85.0934	2.82	0.06	10.00	-20.00	7.326	5.19921	7.07321	0.0
6.2487	85.0934	2.82	0.06	10.00	-20.00	7.326	5.19674	7.07502	8.0
6.2687	85.0934	2.82	0.06	10.00	-20.00	7.326	5.19427	7.07683	2.0
6.2887	85.0934	2.82	0.06	10.00	-20.00	7.326	5.19180	7.07865	4.0
6.3087	85.0934	2.82	0.06	10.00	-20.00	7.326	5.18933	7.08046	2.0
6.3287	85.0934	2.82	0.06	10.00	-20.00	7.326	5.18686	7.08227	2.0
6.3487	85.0934	2.82	0.06	10.00	-20.00	7.326	5.18438	7.08408	0.0
6.3687	85.0934	2.82	0.06	10.00	-20.00	7.326	5.18191	7.08589	2.0
6.3887	85.0934	2.82	0.06	10.00	-20.00	7.326	5.17944	7.08770	2.0
6.4087	85.0934	2.82	0.06	10.00	-20.00	7.326	5.17696	7.08950	4.0
6.4287	85.0934	2.82	0.06	10.00	-20.00	7.326	5.17449	7.09131	0.0
6.4487	85.0934	2.82	0.06	10.00	-20.00	7.326	5.17201	7.09312	2.0
6.4687	85.0934	2.82	0.06	10.00	-20.00	7.326	5.16953	7.09492	4.0
6.4887	85.0934	2.82	0.06	10.00	-20.00	7.326	5.16706	7.09673	0.0
6.5087	85.0934	2.82	0.06	10.00	-20.00	7.326	5.16458	7.09853	2.0
6.5287	85.0934	2.82	0.06	10.00	-20.00	7.326	5.16210	7.10033	2.0
6.5487	85.0934	2.82	0.06	10.00	-20.00	7.326	5.15962	7.10213	4.0
6.5687	85.0934	2.82	0.06	10.00	-20.00	7.326	5.15714	7.10393	4.0
6.5887	85.0934	2.82	0.06	10.00	-20.00	7.326	5.15466	7.10573	2.0
6.6087	85.0934	2.82	0.06	10.00	-20.00	7.326	5.15218	7.10753	2.0
6.6287	85.0934	2.82	0.06	10.00	-20.00	7.326	5.14970	7.10933	0.0
6.6487	85.0934	2.82	0.06	10.00	-20.00	7.326	5.14722	7.11113	0.0
6.6687	85.0934	2.82	0.06	10.00	-20.00	7.326	5.14474	7.11292	0.0
6.6887	85.0934	2.82	0.06	10.00	-20.00	7.326	5.14225	7.11472	2.0
6.7087	85.0934	2.82	0.06	10.00	-20.00	7.326	5.13977	7.11651	2.0
6.7287	85.0934	2.82	0.06	10.00	-20.00	7.326	5.13729	7.11831	2.0
6.7487	85.0934	2.82	0.06	10.00	-20.00	7.326	5.13480	7.12010	2.0
6.7687	85.0934	2.82	0.06	10.00	-20.00	7.326	5.13231	7.12189	4.0
6.7887	85.0934	2.82	0.06	10.00	-20.00	7.326	5.12983	7.12368	2.0
6.8087	85.0934	2.82	0.06	10.00	-20.00	7.326	5.12734	7.12547	2.0
6.8287	85.0934	2.82	0.06	10.00	-20.00	7.326	5.12485	7.12726	0.0
6.8487	85.0934	2.82	0.06	10.00	-20.00	7.326	5.12237	7.12905	2.0
6.8687	85.0934	2.82	0.06	10.00	-20.00	7.326	5.11988	7.13084	0.0
6.8887	85.0934	2.82	0.06	10.00	-20.00	7.326	5.11739	7.13263	2.0
6.9087	85.0934	2.82	0.06	10.00	-20.00	7.326	5.11490	7.13441	0.0
6.9287	85.0934	2.82	0.06	10.00	-20.00	7.326	5.11241	7.13620	0.0
6.9487	85.0934	2.82	0.06	10.00	-20.00	7.326	5.10992	7.13798	4.0
6.9687	85.0934	2.82	0.06	10.00	-20.00	7.326	5.10742	7.13976	2.0
6.9887	85.0934	2.82	0.06	10.00	-20.00	7.326	5.10493	7.14155	0.0
7.0087	85.0934	2.82	0.06	10.00	-20.00	7.326	5.10244	7.14333	2.0
7.0287	85.0934	2.82	0.06	10.00	-20.00	7.326	5.09994	7.14511	4.0
7.0487	85.0934	2.82	0.06	10.00	-20.00	7.326	5.09745	7.14689	2.0
7.0687	85.0934	2.82	0.06	10.00	-20.00	7.326	5.09495	7.14867	2.0
7.0887	85.0934	2.82	0.06	10.00	-20.00	7.326	5.09246	7.15045	0.0
7.1087	85.0934	2.82	0.06	10.00	-20.00	7.326	5.08996	7.15222	2.0
7.1287	85.0934	2.82	0.06	10.00	-20.00	7.326	5.08747	7.15400	0.0
7.1487	85.0934	2.82	0.06	10.00	-20.00	7.326	5.08497	7.15577	0.0
7.1687	85.0934	2.82	0.06	10.00	-20.00	7.326	5.08247	7.15755	2.0
7.1887	85.0934	2.82	0.06	10.00	-20.00	7.326	5.07997	7.15932	0.0
7.2087	85.0934	2.82	0.06	10.00	-20.00	7.326	5.07747	7.16110	4.0
7.2287	85.0934	2.82	0.06	10.00	-20.00	7.326	5.07497	7.16287	4.0
7.2487	85.0934	2.82	0.06	10.00	-20.00	7.326	5.07247	7.16464	2.0
7.2687	85.0934	2.82	0.06	10.00	-20.00	7.326	5.06997	7.16641	2.0
7.2887	85.0934	2.82	0.06	10.00	-20.00	7.326	5.06747	7.16818	0.0
7.3087	85.0934	2.82	0.06	10.00	-20.00	7.326	5.06497	7.16995	4.0
7.3287	85.0934	2.82	0.06	10.00	-20.00	7.326	5.06246	7.17171	6.0
7.3487	85.0934	2.82	0.06	10.00	-20.00	7.326	5.05996	7.17348	2.0
7.3687	85.0934	2.82	0.06	10.00	-20.00	7.326	5.05745	7.17525	2.0
7.3887	85.0934	2.82	0.06	10.00	-20.00	7.326	5.05495	7.17701	2.0
7.4087	85.0934	2.82	0.06	10.00	-20.00	7.326	5.05244	7.17878	6.0
7.4287	85.0934	2.82	0.06	10.00	-20.00	7.326	5.04994	7.18054	2.0
7.4487	85.0934	2.82	0.06	10.00	-20.00	7.326	5.04743	7.18230	0.0
7.4687	85.0934	2.82	0.06	10.00	-20.00	7.326	5.04492	7.18406	2.0
7.4887	85.0934	2.82	0.06	10.00	-20.00	7.326	5.04242	7.18582	2.0
7.5087	85.0934	2.82	0.06	10.00	-20.00	7.326	5.03991	7.18758	2.0
7.5287	85.0934	2.82	0.06	10.00	-20.00	7.326	5.03740	7.18934	0.0
7.5487	85.0934	2.82	0.06	10.00	-20.00	7.326	5.03489	7.19110	0.0
7.5687	85.0934	2.82	0.06	10.00	-20.00	7.326	5.03238	7.19286	4.0
7.5887	85.0934	2.82	0.06	10.00	-20.00	7.326	5.02987	7.19461	0.0
7.6087	85.0934	2.82	0.06	10.00	-20.00	7.326	5.02735	7.19637	0.0
7.6287	85.0934	2.82	0.06	10.00	-20.00	7.326	5.02484	7.19812	2.0
7.6487	85.0934	2.82	0.06	10.00	-20.00	7.326	5.02233	7.19988	0.0
7.6687	85.0934	2.82	0.06	10.00	-20.00	7.326	5.01982	7.20163	0.0
7.6887	85.0934	2.82	0.06	10.00	-20.00	7.326	5.01730	7.20338	2.0
7.7087	85.0934	2.82	0.06	10.00	-20.00	7.326	5.01479	7.20513	8.0
7.7287	85.0934	2.82	0.06	10.00	-20.00	7.326	5.01227	7.20688	0.0
7.7487	85.0934	2.82	0.06	10.00	-20.00	7.326	5.00976	7.20863	0.0
7.7687	85.0934	2.82	0.06	10.00	-20.00	7.326	5.00724	7.21038	0.0
7.7887	85.0934	2.82	0.06	10.00	-20.00	7.326	5.00472	7.21213	0.0
7.8087	85.0934	2.82	0.06	10.00	-20.00	7.326	5.00220	7.21387	2.0
7.8287	85.0934	2.82	0.06	10.00	-20.00	7.326	4.99969	7.21562	0.0
7.8487	85.0934	2.82	0.06	10.00	-20.00	7.326	4.99717	7.21736	0.0
7.8687	85.0934	2.82	0.06	10.00	-20.00	7.326	4.99465	7.21911	0.0
7.8887	85.0934	2.82	0.06	10.00	-20.00	7.326	4.99213	7.22085	4.0
7.9087	85.0934	2.82	0.06	10.00	-20.00	7.326	4.98961	7.22259	0.0
7.9287	85.0934	2.82	0.06	10.00	-20.00	7.326	4.98708	7.22433	6.0
7.9487	85.0934	2.82	0.06	10.00	-20.00	7.326	4.98456	7.22607	2.0
7.9687	85.0934	2.82	0.06	10.00	-20.00	7.326	4.98204	7.22781	0.0
7.9887	85.0934	2.82	0.06	10.00	-20.00	7.326	4.97952	7.22955	0.0
8.0087	85.0934	2.82	0.06	10.00	-20.00	7.326	4.97699	7.23129	2.0
8.0287	85.0934	2.82	0.06	10.00	-20.00	7.326	4.97447	7.23303	2.0
8.0487	85.0934	2.82	0.06	10.00	-20.00	7.326	4.97194	7.23476	2.0
8.0687	85.0934	2.82	0.06	10.00	-20.00	7.326	4.96942	7.23650	0.0
8.0887	85.0934	2.82	0.06	10.00	-20.00	7.326	4.96689	7.23823	2.0

6.0987	85.1134	2.82	0.06	10.00	-20.00	7.326	5.21747	7.06182	2.0
6.1187	85.1134	2.82	0.06	10.00	-20.00	7.326	5.21500	7.06364	0.0
6.1387	85.1134	2.82	0.06	10.00	-20.00	7.326	5.21254	7.06546	2.0
6.1587	85.1134	2.82	0.06	10.00	-20.00	7.326	5.21007	7.06728	0.0
6.1787	85.1134	2.82	0.06	10.00	-20.00	7.326	5.20760	7.06910	0.0
6.1987	85.1134	2.82	0.06	10.00	-20.00	7.326	5.20513	7.07092	2.0
6.2187	85.1134	2.82	0.06	10.00	-20.00	7.326	5.20267	7.07273	4.0
6.2387	85.1134	2.82	0.06	10.00	-20.00	7.326	5.20020	7.07455	4.0
6.2587	85.1134	2.82	0.06	10.00	-20.00	7.326	5.19773	7.07637	2.0
6.2787	85.1134	2.82	0.06	10.00	-20.00	7.326	5.19526	7.07818	2.0
6.2987	85.1134	2.82	0.06	10.00	-20.00	7.326	5.19279	7.07999	4.0
6.3187	85.1134	2.82	0.06	10.00	-20.00	7.326	5.19031	7.08180	2.0
6.3387	85.1134	2.82	0.06	10.00	-20.00	7.326	5.18784	7.08362	0.0
6.3587	85.1134	2.82	0.06	10.00	-20.00	7.326	5.18537	7.08543	0.0
6.3787	85.1134	2.82	0.06	10.00	-20.00	7.326	5.18289	7.08724	0.0
6.3987	85.1134	2.82	0.06	10.00	-20.00	7.326	5.18042	7.08904	0.0
6.4187	85.1134	2.82	0.06	10.00	-20.00	7.326	5.17795	7.09085	4.0
6.4387	85.1134	2.82	0.06	10.00	-20.00	7.326	5.17547	7.09266	0.0
6.4587	85.1134	2.82	0.06	10.00	-20.00	7.326	5.17299	7.09447	4.0
6.4787	85.1134	2.82	0.06	10.00	-20.00	7.326	5.17052	7.09627	4.0
6.4987	85.1134	2.82	0.06	10.00	-20.00	7.326	5.16804	7.09808	2.0
6.5187	85.1134	2.82	0.06	10.00	-20.00	7.326	5.16556	7.09988	0.0
6.5387	85.1134	2.82	0.06	10.00	-20.00	7.326	5.16308	7.10168	4.0
6.5587	85.1134	2.82	0.06	10.00	-20.00	7.326	5.16060	7.10348	0.0
6.5787	85.1134	2.82	0.06	10.00	-20.00	7.326	5.15812	7.10528	0.0
6.5987	85.1134	2.82	0.06	10.00	-20.00	7.326	5.15564	7.10708	2.0
6.6187	85.1134	2.82	0.06	10.00	-20.00	7.326	5.15316	7.10888	2.0
6.6387	85.1134	2.82	0.06	10.00	-20.00	7.326	5.15068	7.11068	2.0
6.6587	85.1134	2.82	0.06	10.00	-20.00	7.326	5.14820	7.11248	2.0
6.6787	85.1134	2.82	0.06	10.00	-20.00	7.326	5.14572	7.11428	2.0
6.6987	85.1134	2.82	0.06	10.00	-20.00	7.326	5.14323	7.11607	6.0
6.7187	85.1134	2.82	0.06	10.00	-20.00	7.326	5.14075	7.11787	0.0
6.7387	85.1134	2.82	0.06	10.00	-20.00	7.326	5.13826	7.11966	0.0
6.7587	85.1134	2.82	0.06	10.00	-20.00	7.326	5.13578	7.12145	4.0
6.7787	85.1134	2.82	0.06	10.00	-20.00	7.326	5.13329	7.12325	0.0
6.7987	85.1134	2.82	0.06	10.00	-20.00	7.326	5.13080	7.12504	0.0
6.8187	85.1134	2.82	0.06	10.00	-20.00	7.326	5.12832	7.12683	0.0
6.8387	85.1134	2.82	0.06	10.00	-20.00	7.326	5.12583	7.12862	2.0
6.8587	85.1134	2.82	0.06	10.00	-20.00	7.326	5.12334	7.13041	2.0
6.8787	85.1134	2.82	0.06	10.00	-20.00	7.326	5.12085	7.13219	2.0
6.8987	85.1134	2.82	0.06	10.00	-20.00	7.326	5.11836	7.13398	0.0
6.9187	85.1134	2.82	0.06	10.00	-20.00	7.326	5.11587	7.13577	0.0
6.9387	85.1134	2.82	0.06	10.00	-20.00	7.326	5.11338	7.13755	0.0
6.9587	85.1134	2.82	0.06	10.00	-20.00	7.326	5.11089	7.13934	0.0
6.9787	85.1134	2.82	0.06	10.00	-20.00	7.326	5.10839	7.14112	0.0
6.9987	85.1134	2.82	0.06	10.00	-20.00	7.326	5.10590	7.14290	0.0
7.0187	85.1134	2.82	0.06	10.00	-20.00	7.326	5.10341	7.14469	2.0
7.0387	85.1134	2.82	0.06	10.00	-20.00	7.326	5.10091	7.14647	0.0
7.0587	85.1134	2.82	0.06	10.00	-20.00	7.326	5.09842	7.14825	0.0
7.0787	85.1134	2.82	0.06	10.00	-20.00	7.326	5.09592	7.15003	2.0
7.0987	85.1134	2.82	0.06	10.00	-20.00	7.326	5.09343	7.15180	0.0
7.1187	85.1134	2.82	0.06	10.00	-20.00	7.326	5.09093	7.15358	0.0
7.1387	85.1134	2.82	0.06	10.00	-20.00	7.326	5.08843	7.15536	2.0
7.1587	85.1134	2.82	0.06	10.00	-20.00	7.326	5.08593	7.15713	0.0
7.1787	85.1134	2.82	0.06	10.00	-20.00	7.326	5.08344	7.15891	0.0
7.1987	85.1134	2.82	0.06	10.00	-20.00	7.326	5.08094	7.16068	2.0
7.2187	85.1134	2.82	0.06	10.00	-20.00	7.326	5.07844	7.16246	6.0
7.2387	85.1134	2.82	0.06	10.00	-20.00	7.326	5.07594	7.16423	4.0
7.2587	85.1134	2.82	0.06	10.00	-20.00	7.326	5.07344	7.16600	0.0
7.2787	85.1134	2.82	0.06	10.00	-20.00	7.326	5.07093	7.16777	0.0
7.2987	85.1134	2.82	0.06	10.00	-20.00	7.326	5.06843	7.16954	0.0
7.3187	85.1134	2.82	0.06	10.00	-20.00	7.326	5.06593	7.17131	2.0
7.3387	85.1134	2.82	0.06	10.00	-20.00	7.326	5.06343	7.17308	0.0
7.3587	85.1134	2.82	0.06	10.00	-20.00	7.326	5.06092	7.17484	0.0
7.3787	85.1134	2.82	0.06	10.00	-20.00	7.326	5.05842	7.17661	2.0
7.3987	85.1134	2.82	0.06	10.00	-20.00	7.326	5.05591	7.17838	4.0
7.4187	85.1134	2.82	0.06	10.00	-20.00	7.326	5.05340	7.18014	2.0
7.4387	85.1134	2.82	0.06	10.00	-20.00	7.326	5.05090	7.18190	2.0
7.4587	85.1134	2.82	0.06	10.00	-20.00	7.326	5.04839	7.18367	2.0
7.4787	85.1134	2.82	0.06	10.00	-20.00	7.326	5.04588	7.18543	2.0
7.4987	85.1134	2.82	0.06	10.00	-20.00	7.326	5.04337	7.18719	0.0
7.5187	85.1134	2.82	0.06	10.00	-20.00	7.326	5.04087	7.18895	0.0
7.5387	85.1134	2.82	0.06	10.00	-20.00	7.326	5.03836	7.19071	0.0
7.5587	85.1134	2.82	0.06	10.00	-20.00	7.326	5.03585	7.19247	2.0
7.5787	85.1134	2.82	0.06	10.00	-20.00	7.326	5.03333	7.19422	0.0
7.5987	85.1134	2.82	0.06	10.00	-20.00	7.326	5.03082	7.19598	2.0
7.6187	85.1134	2.82	0.06	10.00	-20.00	7.326	5.02831	7.19774	2.0
7.6387	85.1134	2.82	0.06	10.00	-20.00	7.326	5.02580	7.19949	0.0
7.6587	85.1134	2.82	0.06	10.00	-20.00	7.326	5.02328	7.20124	2.0
7.6787	85.1134	2.82	0.06	10.00	-20.00	7.326	5.02077	7.20300	0.0
7.6987	85.1134	2.82	0.06	10.00	-20.00	7.326	5.01826	7.20475	2.0
7.7187	85.1134	2.82	0.06	10.00	-20.00	7.326	5.01574	7.20650	4.0
7.7387	85.1134	2.82	0.06	10.00	-20.00	7.326	5.01322	7.20825	2.0
7.7587	85.1134	2.82	0.06	10.00	-20.00	7.326	5.01071	7.21000	0.0
7.7787	85.1134	2.82	0.06	10.00	-20.00	7.326	5.00819	7.21175	2.0
7.7987	85.1134	2.82	0.06	10.00	-20.00	7.326	5.00567	7.21350	0.0
7.8187	85.1134	2.82	0.06	10.00	-20.00	7.326	5.00316	7.21524	0.0
7.8387	85.1134	2.82	0.06	10.00	-20.00	7.326	5.00064	7.21699	2.0
7.8587	85.1134	2.82	0.06	10.00	-20.00	7.326	4.99812	7.21874	2.0
7.8787	85.1134	2.82	0.06	10.00	-20.00	7.326	4.99560	7.22048	2.0
7.8987	85.1134	2.82	0.06	10.00	-20.00	7.326	4.99308	7.22222	4.0
7.9187	85.1134	2.82	0.06	10.00	-20.00	7.326	4.99055	7.22397	0.0
7.9387	85.1134	2.82	0.06	10.00	-20.00	7.326	4.98803	7.22571	2.0
7.9587	85.1134	2.82	0.06	10.00	-20.00	7.326	4.98551	7.22745	2.0
7.9787	85.1134	2.82	0.06	10.00	-20.00	7.326	4.98299	7.22919	0.0
7.9987	85.1134	2.82	0.06	10.00	-20.00	7.326	4.98046	7.23093	0.0
8.0187	85.1134	2.82	0.06	10.00	-20.00	7.326	4.97794	7.23266	2.0
8.0387	85.1134	2.82	0.06	10.00	-20.00	7.326	4.97541	7.23440	0.0
8.0587	85.1134	2.82	0.06	10.00	-20.00	7.326	4.97289	7.23614	0.0
8.0787	85.1134	2.82	0.06	10.00	-20.00	7.326	4.97036	7.23787	2.0
8.0987	85.1134	2.82	0.06	10.00	-20.00	7.326	4.96784	7.23961	2.0

6.1087	85.1334	2.82	0.06	10.00	-20.00	7.326	5.21846	7.06317	0.0
6.1287	85.1334	2.82	0.06	10.00	-20.00	7.326	5.21599	7.06499	2.0
6.1487	85.1334	2.82	0.06	10.00	-20.00	7.326	5.21353	7.06681	2.0
6.1687	85.1334	2.82	0.06	10.00	-20.00	7.326	5.21106	7.06863	0.0
6.1887	85.1334	2.82	0.06	10.00	-20.00	7.326	5.20859	7.07044	0.0
6.2087	85.1334	2.82	0.06	10.00	-20.00	7.326	5.20612	7.07226	0.0
6.2287	85.1334	2.82	0.06	10.00	-20.00	7.326	5.20365	7.07408	0.0
6.2487	85.1334	2.82	0.06	10.00	-20.00	7.326	5.20119	7.07590	2.0
6.2687	85.1334	2.82	0.06	10.00	-20.00	7.326	5.19871	7.07771	0.0
6.2887	85.1334	2.82	0.06	10.00	-20.00	7.326	5.19624	7.07952	0.0
6.3087	85.1334	2.82	0.06	10.00	-20.00	7.326	5.19377	7.08134	8.0
6.3287	85.1334	2.82	0.06	10.00	-20.00	7.326	5.19130	7.08315	0.0
6.3487	85.1334	2.82	0.06	10.00	-20.00	7.326	5.18883	7.08496	0.0
6.3687	85.1334	2.82	0.06	10.00	-20.00	7.326	5.18635	7.08677	0.0
6.3887	85.1334	2.82	0.06	10.00	-20.00	7.326	5.18388	7.08858	2.0
6.4087	85.1334	2.82	0.06	10.00	-20.00	7.326	5.18141	7.09039	2.0
6.4287	85.1334	2.82	0.06	10.00	-20.00	7.326	5.17893	7.09220	2.0
6.4487	85.1334	2.82	0.06	10.00	-20.00	7.326	5.17645	7.09401	0.0
6.4687	85.1334	2.82	0.06	10.00	-20.00	7.326	5.17398	7.09581	2.0
6.4887	85.1334	2.82	0.06	10.00	-20.00	7.326	5.17150	7.09762	0.0
6.5087	85.1334	2.82	0.06	10.00	-20.00	7.326	5.16902	7.09942	0.0
6.5287	85.1334	2.82	0.06	10.00	-20.00	7.326	5.16654	7.10123	0.0
6.5487	85.1334	2.82	0.06	10.00	-20.00	7.326	5.16406	7.10303	0.0
6.5687	85.1334	2.82	0.06	10.00	-20.00	7.326	5.16158	7.10483	4.0
6.5887	85.1334	2.82	0.06	10.00	-20.00	7.326	5.15910	7.10663	0.0
6.6087	85.1334	2.82	0.06	10.00	-20.00	7.326	5.15662	7.10844	2.0
6.6287	85.1334	2.82	0.06	10.00	-20.00	7.326	5.15414	7.11023	4.0
6.6487	85.1334	2.82	0.06	10.00	-20.00	7.326	5.15166	7.11203	0.0
6.6687	85.1334	2.82	0.06	10.00	-20.00	7.326	5.14918	7.11383	0.0
6.6887	85.1334	2.82	0.06	10.00	-20.00	7.326	5.14669	7.11563	0.0
6.7087	85.1334	2.82	0.06	10.00	-20.00	7.326	5.14421	7.11742	4.0
6.7287	85.1334	2.82	0.06	10.00	-20.00	7.326	5.14172	7.11922	0.0
6.7487	85.1334	2.82	0.06	10.00	-20.00	7.326	5.13924	7.12101	0.0
6.7687	85.1334	2.82	0.06	10.00	-20.00	7.326	5.13675	7.12281	0.0
6.7887	85.1334	2.82	0.06	10.00	-20.00	7.326	5.13427	7.12460	0.0
6.8087	85.1334	2.82	0.06	10.00	-20.00	7.326	5.13178	7.12639	4.0
6.8287	85.1334	2.82	0.06	10.00	-20.00	7.326	5.12929	7.12818	2.0
6.8487	85.1334	2.82	0.06	10.00	-20.00	7.326	5.12680	7.12997	2.0
6.8687	85.1334	2.82	0.06	10.00	-20.00	7.326	5.12431	7.13176	2.0
6.8887	85.1334	2.82	0.06	10.00	-20.00	7.326	5.12182	7.13355	2.0
6.9087	85.1334	2.82	0.06	10.00	-20.00	7.326	5.11933	7.13534	4.0
6.9287	85.1334	2.82	0.06	10.00	-20.00	7.326	5.11684	7.13712	0.0
6.9487	85.1334	2.82	0.06	10.00	-20.00	7.326	5.11435	7.13891	2.0
6.9687	85.1334	2.82	0.06	10.00	-20.00	7.326	5.11186	7.14069	2.0
6.9887	85.1334	2.82	0.06	10.00	-20.00	7.326	5.10937	7.14248	0.0
7.0087	85.1334	2.82	0.06	10.00	-20.00	7.326	5.10687	7.14426	0.0
7.0287	85.1334	2.82	0.06	10.00	-20.00	7.326	5.10438	7.14604	2.0
7.0487	85.1334	2.82	0.06	10.00	-20.00	7.326	5.10188	7.14783	2.0
7.0687	85.1334	2.82	0.06	10.00	-20.00	7.326	5.09939	7.14961	0.0
7.0887	85.1334	2.82	0.06	10.00	-20.00	7.326	5.09689	7.15139	2.0
7.1087	85.1334	2.82	0.06	10.00	-20.00	7.326	5.09440	7.15316	2.0
7.1287	85.1334	2.82	0.06	10.00	-20.00	7.326	5.09190	7.15494	0.0
7.1487	85.1334	2.82	0.06	10.00	-20.00	7.326	5.08940	7.15672	0.0
7.1687	85.1334	2.82	0.06	10.00	-20.00	7.326	5.08690	7.15850	4.0
7.1887	85.1334	2.82	0.06	10.00	-20.00	7.326	5.08440	7.16027	2.0
7.2087	85.1334	2.82	0.06	10.00	-20.00	7.326	5.08190	7.16204	0.0
7.2287	85.1334	2.82	0.06	10.00	-20.00	7.326	5.07940	7.16382	2.0
7.2487	85.1334	2.82	0.06	10.00	-20.00	7.326	5.07690	7.16559	0.0
7.2687	85.1334	2.82	0.06	10.00	-20.00	7.326	5.07440	7.16736	0.0
7.2887	85.1334	2.82	0.06	10.00	-20.00	7.326	5.07190	7.16913	2.0
7.3087	85.1334	2.82	0.06	10.00	-20.00	7.326	5.06939	7.17090	2.0
7.3287	85.1334	2.82	0.06	10.00	-20.00	7.326	5.06689	7.17267	0.0
7.3487	85.1334	2.82	0.06	10.00	-20.00	7.326	5.06439	7.17444	0.0
7.3687	85.1334	2.82	0.06	10.00	-20.00	7.326	5.06188	7.17621	2.0
7.3887	85.1334	2.82	0.06	10.00	-20.00	7.326	5.05938	7.17797	2.0
7.4087	85.1334	2.82	0.06	10.00	-20.00	7.326	5.05687	7.17974	2.0
7.4287	85.1334	2.82	0.06	10.00	-20.00	7.326	5.05437	7.18150	0.0
7.4487	85.1334	2.82	0.06	10.00	-20.00	7.326	5.05186	7.18327	0.0
7.4687	85.1334	2.82	0.06	10.00	-20.00	7.326	5.04935	7.18503	0.0
7.4887	85.1334	2.82	0.06	10.00	-20.00	7.326	5.04684	7.18679	2.0
7.5087	85.1334	2.82	0.06	10.00	-20.00	7.326	5.04433	7.18856	2.0
7.5287	85.1334	2.82	0.06	10.00	-20.00	7.326	5.04182	7.19032	0.0
7.5487	85.1334	2.82	0.06	10.00	-20.00	7.326	5.03931	7.19208	4.0
7.5687	85.1334	2.82	0.06	10.00	-20.00	7.326	5.03680	7.19383	0.0
7.5887	85.1334	2.82	0.06	10.00	-20.00	7.326	5.03429	7.19559	2.0
7.6087	85.1334	2.82	0.06	10.00	-20.00	7.326	5.03178	7.19735	0.0
7.6287	85.1334	2.82	0.06	10.00	-20.00	7.326	5.02927	7.19910	0.0
7.6487	85.1334	2.82	0.06	10.00	-20.00	7.326	5.02675	7.20086	0.0
7.6687	85.1334	2.82	0.06	10.00	-20.00	7.326	5.02424	7.20261	0.0
7.6887	85.1334	2.82	0.06	10.00	-20.00	7.326	5.02172	7.20437	0.0
7.7087	85.1334	2.82	0.06	10.00	-20.00	7.326	5.01921	7.20612	2.0
7.7287	85.1334	2.82	0.06	10.00	-20.00	7.326	5.01669	7.20787	2.0
7.7487	85.1334	2.82	0.06	10.00	-20.00	7.326	5.01418	7.20962	0.0
7.7687	85.1334	2.82	0.06	10.00	-20.00	7.326	5.01166	7.21137	0.0
7.7887	85.1334	2.82	0.06	10.00	-20.00	7.326	5.00914	7.21312	2.0
7.8087	85.1334	2.82	0.06	10.00	-20.00	7.326	5.00662	7.21487	4.0
7.8287	85.1334	2.82	0.06	10.00	-20.00	7.326	5.00411	7.21662	4.0
7.8487	85.1334	2.82	0.06	10.00	-20.00	7.326	5.00159	7.21836	2.0
7.8687	85.1334	2.82	0.06	10.00	-20.00	7.326	4.99907	7.22011	0.0
7.8887	85.1334	2.82	0.06	10.00	-20.00	7.326	4.99655	7.22185	2.0
7.9087	85.1334	2.82	0.06	10.00	-20.00	7.326	4.99402	7.22360	2.0
7.9287	85.1334	2.82	0.06	10.00	-20.00	7.326	4.99150	7.22534	0.0
7.9487	85.1334	2.82	0.06	10.00	-20.00	7.326	4.98898	7.22708	0.0
7.9687	85.1334	2.82	0.06	10.00	-20.00	7.326	4.98646	7.22882	2.0
7.9887	85.1334	2.82	0.06	10.00	-20.00	7.326	4.98393	7.23056	0.0
8.0087	85.1334	2.82	0.06	10.00	-20.00	7.326	4.98141	7.23230	2.0
8.0287	85.1334	2.82	0.06	10.00	-20.00	7.326	4.97888	7.23404	0.0
8.0487	85.1334	2.82	0.06	10.00	-20.00	7.326	4.97636	7.23578	4.0
8.0687	85.1334	2.82	0.06	10.00	-20.00	7.326	4.97383	7.23751	2.0
8.0887	85.1334	2.82	0.06	10.00	-20.00	7.326	4.97131	7.23925	4.0
8.1087	85.1334	2.82	0.06	10.00	-20.00	7.326	4.96878	7.24098	2.0

6.1187	85.1534	2.82	0.06	10.00	-20.00	7.326	5.21945	7.06451	2.0
6.1387	85.1534	2.82	0.06	10.00	-20.00	7.326	5.21698	7.06633	0.0
6.1587	85.1534	2.82	0.06	10.00	-20.00	7.326	5.21452	7.06815	0.0
6.1787	85.1534	2.82	0.06	10.00	-20.00	7.326	5.21205	7.06997	0.0
6.1987	85.1534	2.82	0.06	10.00	-20.00	7.326	5.20958	7.07179	2.0
6.2187	85.1534	2.82	0.06	10.00	-20.00	7.326	5.20711	7.07361	2.0
6.2387	85.1534	2.82	0.06	10.00	-20.00	7.326	5.20464	7.07542	0.0
6.2587	85.1534	2.82	0.06	10.00	-20.00	7.326	5.20217	7.07724	2.0
6.2787	85.1534	2.82	0.06	10.00	-20.00	7.326	5.19970	7.07906	0.0
6.2987	85.1534	2.82	0.06	10.00	-20.00	7.326	5.19723	7.08087	4.0
6.3187	85.1534	2.82	0.06	10.00	-20.00	7.326	5.19476	7.08268	2.0
6.3387	85.1534	2.82	0.06	10.00	-20.00	7.326	5.19229	7.08450	0.0
6.3587	85.1534	2.82	0.06	10.00	-20.00	7.326	5.18981	7.08631	0.0
6.3787	85.1534	2.82	0.06	10.00	-20.00	7.326	5.18734	7.08812	0.0
6.3987	85.1534	2.82	0.06	10.00	-20.00	7.326	5.18486	7.08993	0.0
6.4187	85.1534	2.82	0.06	10.00	-20.00	7.326	5.18239	7.09174	0.0
6.4387	85.1534	2.82	0.06	10.00	-20.00	7.326	5.17991	7.09355	2.0
6.4587	85.1534	2.82	0.06	10.00	-20.00	7.326	5.17744	7.09536	0.0
6.4787	85.1534	2.82	0.06	10.00	-20.00	7.326	5.17496	7.09716	2.0
6.4987	85.1534	2.82	0.06	10.00	-20.00	7.326	5.17248	7.09897	0.0
6.5187	85.1534	2.82	0.06	10.00	-20.00	7.326	5.17000	7.10077	4.0
6.5387	85.1534	2.82	0.06	10.00	-20.00	7.326	5.16753	7.10258	6.0
6.5587	85.1534	2.82	0.06	10.00	-20.00	7.326	5.16505	7.10438	2.0
6.5787	85.1534	2.82	0.06	10.00	-20.00	7.326	5.16257	7.10618	0.0
6.5987	85.1534	2.82	0.06	10.00	-20.00	7.326	5.16008	7.10799	2.0
6.6187	85.1534	2.82	0.06	10.00	-20.00	7.326	5.15760	7.10979	0.0
6.6387	85.1534	2.82	0.06	10.00	-20.00	7.326	5.15512	7.11159	0.0
6.6587	85.1534	2.82	0.06	10.00	-20.00	7.326	5.15264	7.11339	2.0
6.6787	85.1534	2.82	0.06	10.00	-20.00	7.326	5.15016	7.11518	0.0
6.6987	85.1534	2.82	0.06	10.00	-20.00	7.326	5.14767	7.11698	0.0
6.7187	85.1534	2.82	0.06	10.00	-20.00	7.326	5.14519	7.11878	0.0
6.7387	85.1534	2.82	0.06	10.00	-20.00	7.326	5.14270	7.12057	0.0
6.7587	85.1534	2.82	0.06	10.00	-20.00	7.326	5.14022	7.12237	0.0
6.7787	85.1534	2.82	0.06	10.00	-20.00	7.326	5.13773	7.12416	2.0
6.7987	85.1534	2.82	0.06	10.00	-20.00	7.326	5.13524	7.12595	2.0
6.8187	85.1534	2.82	0.06	10.00	-20.00	7.326	5.13275	7.12775	2.0
6.8387	85.1534	2.82	0.06	10.00	-20.00	7.326	5.13027	7.12954	0.0
6.8587	85.1534	2.82	0.06	10.00	-20.00	7.326	5.12778	7.13133	2.0
6.8787	85.1534	2.82	0.06	10.00	-20.00	7.326	5.12529	7.13312	8.0
6.8987	85.1534	2.82	0.06	10.00	-20.00	7.326	5.12280	7.13491	2.0
6.9187	85.1534	2.82	0.06	10.00	-20.00	7.326	5.12031	7.13669	2.0
6.9387	85.1534	2.82	0.06	10.00	-20.00	7.326	5.11781	7.13848	4.0
6.9587	85.1534	2.82	0.06	10.00	-20.00	7.326	5.11532	7.14027	0.0
6.9787	85.1534	2.82	0.06	10.00	-20.00	7.326	5.11283	7.14205	0.0
6.9987	85.1534	2.82	0.06	10.00	-20.00	7.326	5.11034	7.14384	0.0
7.0187	85.1534	2.82	0.06	10.00	-20.00	7.326	5.10784	7.14562	2.0
7.0387	85.1534	2.82	0.06	10.00	-20.00	7.326	5.10535	7.14740	2.0
7.0587	85.1534	2.82	0.06	10.00	-20.00	7.326	5.10285	7.14918	0.0
7.0787	85.1534	2.82	0.06	10.00	-20.00	7.326	5.10036	7.15096	2.0
7.0987	85.1534	2.82	0.06	10.00	-20.00	7.326	5.09786	7.15274	0.0
7.1187	85.1534	2.82	0.06	10.00	-20.00	7.326	5.09536	7.15452	2.0
7.1387	85.1534	2.82	0.06	10.00	-20.00	7.326	5.09287	7.15630	0.0
7.1587	85.1534	2.82	0.06	10.00	-20.00	7.326	5.09037	7.15808	0.0
7.1787	85.1534	2.82	0.06	10.00	-20.00	7.326	5.08787	7.15986	4.0
7.1987	85.1534	2.82	0.06	10.00	-20.00	7.326	5.08537	7.16163	0.0
7.2187	85.1534	2.82	0.06	10.00	-20.00	7.326	5.08287	7.16341	2.0
7.2387	85.1534	2.82	0.06	10.00	-20.00	7.326	5.08037	7.16518	0.0
7.2587	85.1534	2.82	0.06	10.00	-20.00	7.326	5.07787	7.16695	2.0
7.2787	85.1534	2.82	0.06	10.00	-20.00	7.326	5.07536	7.16872	0.0
7.2987	85.1534	2.82	0.06	10.00	-20.00	7.326	5.07286	7.17050	0.0
7.3187	85.1534	2.82	0.06	10.00	-20.00	7.326	5.07036	7.17227	2.0
7.3387	85.1534	2.82	0.06	10.00	-20.00	7.326	5.06785	7.17404	0.0
7.3587	85.1534	2.82	0.06	10.00	-20.00	7.326	5.06535	7.17580	2.0
7.3787	85.1534	2.82	0.06	10.00	-20.00	7.326	5.06284	7.17757	2.0
7.3987	85.1534	2.82	0.06	10.00	-20.00	7.326	5.06034	7.17934	0.0
7.4187	85.1534	2.82	0.06	10.00	-20.00	7.326	5.05783	7.18110	0.0
7.4387	85.1534	2.82	0.06	10.00	-20.00	7.326	5.05533	7.18287	0.0
7.4587	85.1534	2.82	0.06	10.00	-20.00	7.326	5.05282	7.18463	0.0
7.4787	85.1534	2.82	0.06	10.00	-20.00	7.326	5.05031	7.18640	0.0
7.4987	85.1534	2.82	0.06	10.00	-20.00	7.326	5.04780	7.18816	0.0
7.5187	85.1534	2.82	0.06	10.00	-20.00	7.326	5.04529	7.18992	2.0
7.5387	85.1534	2.82	0.06	10.00	-20.00	7.326	5.04278	7.19168	4.0
7.5587	85.1534	2.82	0.06	10.00	-20.00	7.326	5.04027	7.19344	0.0
7.5787	85.1534	2.82	0.06	10.00	-20.00	7.326	5.03776	7.19520	4.0
7.5987	85.1534	2.82	0.06	10.00	-20.00	7.326	5.03525	7.19696	2.0
7.6187	85.1534	2.82	0.06	10.00	-20.00	7.326	5.03273	7.19872	2.0
7.6387	85.1534	2.82	0.06	10.00	-20.00	7.326	5.03022	7.20047	0.0
7.6587	85.1534	2.82	0.06	10.00	-20.00	7.326	5.02771	7.20223	2.0
7.6787	85.1534	2.82	0.06	10.00	-20.00	7.326	5.02519	7.20398	0.0
7.6987	85.1534	2.82	0.06	10.00	-20.00	7.326	5.02268	7.20574	0.0
7.7187	85.1534	2.82	0.06	10.00	-20.00	7.326	5.02016	7.20749	2.0
7.7387	85.1534	2.82	0.06	10.00	-20.00	7.326	5.01765	7.20924	0.0
7.7587	85.1534	2.82	0.06	10.00	-20.00	7.326	5.01513	7.21099	0.0
7.7787	85.1534	2.82	0.06	10.00	-20.00	7.326	5.01261	7.21274	0.0
7.7987	85.1534	2.82	0.06	10.00	-20.00	7.326	5.01009	7.21449	0.0
7.8187	85.1534	2.82	0.06	10.00	-20.00	7.326	5.00758	7.21624	2.0
7.8387	85.1534	2.82	0.06	10.00	-20.00	7.326	5.00506	7.21799	0.0
7.8587	85.1534	2.82	0.06	10.00	-20.00	7.326	5.00254	7.21973	0.0
7.8787	85.1534	2.82	0.06	10.00	-20.00	7.326	5.00002	7.22148	0.0
7.8987	85.1534	2.82	0.06	10.00	-20.00	7.326	4.99750	7.22322	4.0
7.9187	85.1534	2.82	0.06	10.00	-20.00	7.326	4.99497	7.22497	0.0
7.9387	85.1534	2.82	0.06	10.00	-20.00	7.326	4.99245	7.22671	2.0
7.9587	85.1534	2.82	0.06	10.00	-20.00	7.326	4.98993	7.22845	0.0
7.9787	85.1534	2.82	0.06	10.00	-20.00	7.326	4.98741	7.23020	2.0
7.9987	85.1534	2.82	0.06	10.00	-20.00	7.326	4.98488	7.23194	0.0
8.0187	85.1534	2.82	0.06	10.00	-20.00	7.326	4.98236	7.23368	0.0
8.0387	85.1534	2.82	0.06	10.00	-20.00	7.326	4.97983	7.23541	0.0
8.0587	85.1534	2.82	0.06	10.00	-20.00	7.326	4.97730	7.23715	4.0
8.0787	85.1534	2.82	0.06	10.00	-20.00	7.326	4.97478	7.23889	2.0
8.0987	85.1534	2.82	0.06	10.00	-20.00	7.326	4.97225	7.24062	2.0
8.1187	85.1534	2.82	0.06	10.00	-20.00	7.326	4.96972	7.24236	0.0

6.1287	85.1734	2.82	0.06	10.00	-20.00	7.326	5.22044	7.06585	0.0
6.1487	85.1734	2.82	0.06	10.00	-20.00	7.326	5.21798	7.06767	2.0
6.1687	85.1734	2.82	0.06	10.00	-20.00	7.326	5.21551	7.06949	0.0
6.1887	85.1734	2.82	0.06	10.00	-20.00	7.326	5.21304	7.07131	2.0
6.2087	85.1734	2.82	0.06	10.00	-20.00	7.326	5.21057	7.07313	2.0
6.2287	85.1734	2.82	0.06	10.00	-20.00	7.326	5.20810	7.07495	0.0
6.2487	85.1734	2.82	0.06	10.00	-20.00	7.326	5.20563	7.07677	0.0
6.2687	85.1734	2.82	0.06	10.00	-20.00	7.326	5.20316	7.07858	0.0
6.2887	85.1734	2.82	0.06	10.00	-20.00	7.326	5.20069	7.08040	0.0
6.3087	85.1734	2.82	0.06	10.00	-20.00	7.326	5.19822	7.08221	0.0
6.3287	85.1734	2.82	0.06	10.00	-20.00	7.326	5.19575	7.08403	2.0
6.3487	85.1734	2.82	0.06	10.00	-20.00	7.326	5.19327	7.08584	0.0
6.3687	85.1734	2.82	0.06	10.00	-20.00	7.326	5.19080	7.08765	4.0
6.3887	85.1734	2.82	0.06	10.00	-20.00	7.326	5.18832	7.08947	2.0
6.4087	85.1734	2.82	0.06	10.00	-20.00	7.326	5.18585	7.09128	2.0
6.4287	85.1734	2.82	0.06	10.00	-20.00	7.326	5.18337	7.09309	2.0
6.4487	85.1734	2.82	0.06	10.00	-20.00	7.326	5.18090	7.09490	0.0
6.4687	85.1734	2.82	0.06	10.00	-20.00	7.326	5.17842	7.09670	0.0
6.4887	85.1734	2.82	0.06	10.00	-20.00	7.326	5.17594	7.09851	0.0
6.5087	85.1734	2.82	0.06	10.00	-20.00	7.326	5.17347	7.10032	2.0
6.5287	85.1734	2.82	0.06	10.00	-20.00	7.326	5.17099	7.10212	0.0
6.5487	85.1734	2.82	0.06	10.00	-20.00	7.326	5.16851	7.10393	0.0
6.5687	85.1734	2.82	0.06	10.00	-20.00	7.326	5.16603	7.10573	4.0
6.5887	85.1734	2.82	0.06	10.00	-20.00	7.326	5.16355	7.10753	2.0
6.6087	85.1734	2.82	0.06	10.00	-20.00	7.326	5.16106	7.10934	4.0
6.6287	85.1734	2.82	0.06	10.00	-20.00	7.326	5.15858	7.11114	2.0
6.6487	85.1734	2.82	0.06	10.00	-20.00	7.326	5.15610	7.11294	0.0
6.6687	85.1734	2.82	0.06	10.00	-20.00	7.326	5.15362	7.11474	2.0
6.6887	85.1734	2.82	0.06	10.00	-20.00	7.326	5.15113	7.11653	0.0
6.7087	85.1734	2.82	0.06	10.00	-20.00	7.326	5.14865	7.11833	0.0
6.7287	85.1734	2.82	0.06	10.00	-20.00	7.326	5.14616	7.12013	2.0
6.7487	85.1734	2.82	0.06	10.00	-20.00	7.326	5.14368	7.12193	6.0
6.7687	85.1734	2.82	0.06	10.00	-20.00	7.326	5.14119	7.12372	4.0
6.7887	85.1734	2.82	0.06	10.00	-20.00	7.326	5.13870	7.12551	0.0
6.8087	85.1734	2.82	0.06	10.00	-20.00	7.326	5.13622	7.12731	6.0
6.8287	85.1734	2.82	0.06	10.00	-20.00	7.326	5.13373	7.12910	2.0
6.8487	85.1734	2.82	0.06	10.00	-20.00	7.326	5.13124	7.13089	4.0
6.8687	85.1734	2.82	0.06	10.00	-20.00	7.326	5.12875	7.13268	2.0
6.8887	85.1734	2.82	0.06	10.00	-20.00	7.326	5.12626	7.13447	0.0
6.9087	85.1734	2.82	0.06	10.00	-20.00	7.326	5.12377	7.13626	0.0
6.9287	85.1734	2.82	0.06	10.00	-20.00	7.326	5.12128	7.13805	0.0
6.9487	85.1734	2.82	0.06	10.00	-20.00	7.326	5.11879	7.13984	0.0
6.9687	85.1734	2.82	0.06	10.00	-20.00	7.326	5.11629	7.14162	4.0
6.9887	85.1734	2.82	0.06	10.00	-20.00	7.326	5.11380	7.14341	2.0
7.0087	85.1734	2.82	0.06	10.00	-20.00	7.326	5.11131	7.14519	2.0
7.0287	85.1734	2.82	0.06	10.00	-20.00	7.326	5.10881	7.14698	0.0
7.0487	85.1734	2.82	0.06	10.00	-20.00	7.326	5.10632	7.14876	2.0
7.0687	85.1734	2.82	0.06	10.00	-20.00	7.326	5.10382	7.15054	2.0
7.0887	85.1734	2.82	0.06	10.00	-20.00	7.326	5.10133	7.15232	2.0
7.1087	85.1734	2.82	0.06	10.00	-20.00	7.326	5.09883	7.15410	0.0
7.1287	85.1734	2.82	0.06	10.00	-20.00	7.326	5.09633	7.15588	4.0
7.1487	85.1734	2.82	0.06	10.00	-20.00	7.326	5.09383	7.15766	0.0
7.1687	85.1734	2.82	0.06	10.00	-20.00	7.326	5.09133	7.15944	2.0
7.1887	85.1734	2.82	0.06	10.00	-20.00	7.326	5.08883	7.16122	0.0
7.2087	85.1734	2.82	0.06	10.00	-20.00	7.326	5.08633	7.16299	4.0
7.2287	85.1734	2.82	0.06	10.00	-20.00	7.326	5.08383	7.16477	0.0
7.2487	85.1734	2.82	0.06	10.00	-20.00	7.326	5.08133	7.16654	0.0
7.2687	85.1734	2.82	0.06	10.00	-20.00	7.326	5.07883	7.16831	2.0
7.2887	85.1734	2.82	0.06	10.00	-20.00	7.326	5.07633	7.17009	2.0
7.3087	85.1734	2.82	0.06	10.00	-20.00	7.326	5.07383	7.17186	4.0
7.3287	85.1734	2.82	0.06	10.00	-20.00	7.326	5.07132	7.17363	0.0
7.3487	85.1734	2.82	0.06	10.00	-20.00	7.326	5.06882	7.17540	4.0
7.3687	85.1734	2.82	0.06	10.00	-20.00	7.326	5.06631	7.17717	4.0
7.3887	85.1734	2.82	0.06	10.00	-20.00	7.326	5.06381	7.17893	2.0
7.4087	85.1734	2.82	0.06	10.00	-20.00	7.326	5.06130	7.18070	0.0
7.4287	85.1734	2.82	0.06	10.00	-20.00	7.326	5.05879	7.18247	2.0
7.4487	85.1734	2.82	0.06	10.00	-20.00	7.326	5.05629	7.18423	2.0
7.4687	85.1734	2.82	0.06	10.00	-20.00	7.326	5.05378	7.18600	0.0
7.4887	85.1734	2.82	0.06	10.00	-20.00	7.326	5.05127	7.18776	0.0
7.5087	85.1734	2.82	0.06	10.00	-20.00	7.326	5.04876	7.18952	0.0
7.5287	85.1734	2.82	0.06	10.00	-20.00	7.326	5.04625	7.19129	2.0
7.5487	85.1734	2.82	0.06	10.00	-20.00	7.326	5.04374	7.19305	2.0
7.5687	85.1734	2.82	0.06	10.00	-20.00	7.326	5.04123	7.19481	2.0
7.5887	85.1734	2.82	0.06	10.00	-20.00	7.326	5.03872	7.19657	6.0
7.6087	85.1734	2.82	0.06	10.00	-20.00	7.326	5.03620	7.19833	2.0
7.6287	85.1734	2.82	0.06	10.00	-20.00	7.326	5.03369	7.20008	4.0
7.6487	85.1734	2.82	0.06	10.00	-20.00	7.326	5.03118	7.20184	2.0
7.6687	85.1734	2.82	0.06	10.00	-20.00	7.326	5.02866	7.20360	6.0
7.6887	85.1734	2.82	0.06	10.00	-20.00	7.326	5.02615	7.20535	2.0
7.7087	85.1734	2.82	0.06	10.00	-20.00	7.326	5.02363	7.20710	2.0
7.7287	85.1734	2.82	0.06	10.00	-20.00	7.326	5.02112	7.20886	0.0
7.7487	85.1734	2.82	0.06	10.00	-20.00	7.326	5.01860	7.21061	4.0
7.7687	85.1734	2.82	0.06	10.00	-20.00	7.326	5.01608	7.21236	6.0
7.7887	85.1734	2.82	0.06	10.00	-20.00	7.326	5.01356	7.21411	2.0
7.8087	85.1734	2.82	0.06	10.00	-20.00	7.326	5.01105	7.21586	2.0
7.8287	85.1734	2.82	0.06	10.00	-20.00	7.326	5.00853	7.21761	0.0
7.8487	85.1734	2.82	0.06	10.00	-20.00	7.326	5.00601	7.21936	0.0
7.8687	85.1734	2.82	0.06	10.00	-20.00	7.326	5.00349	7.22111	4.0
7.8887	85.1734	2.82	0.06	10.00	-20.00	7.326	5.00097	7.22285	0.0
7.9087	85.1734	2.82	0.06	10.00	-20.00	7.326	4.99844	7.22460	2.0
7.9287	85.1734	2.82	0.06	10.00	-20.00	7.326	4.99592	7.22634	0.0
7.9487	85.1734	2.82	0.06	10.00	-20.00	7.326	4.99340	7.22808	4.0
7.9687	85.1734	2.82	0.06	10.00	-20.00	7.326	4.99088	7.22983	0.0
7.9887	85.1734	2.82	0.06	10.00	-20.00	7.326	4.98835	7.23157	2.0
8.0087	85.1734	2.82	0.06	10.00	-20.00	7.326	4.98583	7.23331	4.0
8.0287	85.1734	2.82	0.06	10.00	-20.00	7.326	4.98330	7.23505	4.0
8.0487	85.1734	2.82	0.06	10.00	-20.00	7.326	4.98078	7.23679	0.0
8.0687	85.1734	2.82	0.06	10.00	-20.00	7.326	4.97825	7.23853	0.0
8.0887	85.1734	2.82	0.06	10.00	-20.00	7.326	4.97572	7.24026	2.0
8.1087	85.1734	2.82	0.06	10.00	-20.00	7.326	4.97320	7.24200	0.0
8.1287	85.1734	2.82	0.06	10.00	-20.00	7.326	4.97067	7.24374	0.0

6.1387	85.1934	2.82	0.06	10.00	-20.00	7.326	5.22143	7.06719	4.0
6.1587	85.1934	2.82	0.06	10.00	-20.00	7.326	5.21897	7.06901	4.0
6.1787	85.1934	2.82	0.06	10.00	-20.00	7.326	5.21650	7.07083	0.0
6.1987	85.1934	2.82	0.06	10.00	-20.00	7.326	5.21403	7.07265	2.0
6.2187	85.1934	2.82	0.06	10.00	-20.00	7.326	5.21156	7.07447	4.0
6.2387	85.1934	2.82	0.06	10.00	-20.00	7.326	5.20909	7.07629	0.0
6.2587	85.1934	2.82	0.06	10.00	-20.00	7.326	5.20662	7.07811	6.0
6.2787	85.1934	2.82	0.06	10.00	-20.00	7.326	5.20415	7.07993	0.0
6.2987	85.1934	2.82	0.06	10.00	-20.00	7.326	5.20168	7.08174	0.0
6.3187	85.1934	2.82	0.06	10.00	-20.00	7.326	5.19921	7.08356	0.0
6.3387	85.1934	2.82	0.06	10.00	-20.00	7.326	5.19673	7.08537	0.0
6.3587	85.1934	2.82	0.06	10.00	-20.00	7.326	5.19426	7.08719	2.0
6.3787	85.1934	2.82	0.06	10.00	-20.00	7.326	5.19178	7.08900	2.0
6.3987	85.1934	2.82	0.06	10.00	-20.00	7.326	5.18931	7.09081	2.0
[...]
9.8687	88.9734	2.82	0.06	10.00	-20.00	7.326	5.16817	7.48665	4.0
9.8887	88.9734	2.82	0.06	10.00	-20.00	7.326	5.16555	7.48846	2.0
9.9087	88.9734	2.82	0.06	10.00	-20.00	7.326	5.16294	7.49026	2.0
9.9287	88.9734	2.82	0.06	10.00	-20.00	7.326	5.16032	7.49206	4.0
9.9487	88.9734	2.82	0.06	10.00	-20.00	7.326	5.15771	7.49386	0.0
9.9687	88.9734	2.82	0.06	10.00	-20.00	7.326	5.15509	7.49566	0.0
9.9887	88.9734	2.82	0.06	10.00	-20.00	7.326	5.15248	7.49746	2.0
10.0087	88.9734	2.82	0.06	10.00	-20.00	7.326	5.14986	7.49926	2.0
10.0287	88.9734	2.82	0.06	10.00	-20.00	7.326	5.14724	7.50105	4.0

8.0387	88.9934	2.82	0.06	10.00	-20.00	7.326	5.40685	7.31815	0.0
8.0587	88.9934	2.82	0.06	10.00	-20.00	7.326	5.40429	7.32004	0.0
8.0787	88.9934	2.82	0.06	10.00	-20.00	7.326	5.40174	7.32192	4.0
8.0987	88.9934	2.82	0.06	10.00	-20.00	7.326	5.39918	7.32381	0.0
8.1187	88.9934	2.82	0.06	10.00	-20.00	7.326	5.39663	7.32569	4.0
8.1387	88.9934	2.82	0.06	10.00	-20.00	7.326	5.39407	7.32757	0.0
8.1587	88.9934	2.82	0.06	10.00	-20.00	7.326	5.39151	7.32946	0.0
8.1787	88.9934	2.82	0.06	10.00	-20.00	7.326	5.38895	7.33134	4.0
8.1987	88.9934	2.82	0.06	10.00	-20.00	7.326	5.38639	7.33322	0.0
8.2187	88.9934	2.82	0.06	10.00	-20.00	7.326	5.38383	7.33510	2.0
8.2387	88.9934	2.82	0.06	10.00	-20.00	7.326	5.38127	7.33698	0.0
8.2587	88.9934	2.82	0.06	10.00	-20.00	7.326	5.37871	7.33886	0.0
8.2787	88.9934	2.82	0.06	10.00	-20.00	7.326	5.37615	7.34073	2.0
8.2987	88.9934	2.82	0.06	10.00	-20.00	7.326	5.37358	7.34261	4.0
8.3187	88.9934	2.82	0.06	10.00	-20.00	7.326	5.37102	7.34448	0.0
8.3387	88.9934	2.82	0.06	10.00	-20.00	7.326	5.36846	7.34636	4.0
8.3587	88.9934	2.82	0.06	10.00	-20.00	7.326	5.36589	7.34823	0.0
8.3787	88.9934	2.82	0.06	10.00	-20.00	7.326	5.36333	7.35011	2.0
8.3987	88.9934	2.82	0.06	10.00	-20.00	7.326	5.36076	7.35198	0.0
8.4187	88.9934	2.82	0.06	10.00	-20.00	7.326	5.35819	7.35385	2.0
8.4387	88.9934	2.82	0.06	10.00	-20.00	7.326	5.35563	7.35572	2.0
8.4587	88.9934	2.82	0.06	10.00	-20.00	7.326	5.35306	7.35759	2.0
8.4787	88.9934	2.82	0.06	10.00	-20.00	7.326	5.35049	7.35945	0.0
8.4987	88.9934	2.82	0.06	10.00	-20.00	7.326	5.34792	7.36132	2.0
8.5187	88.9934	2.82	0.06	10.00	-20.00	7.326	5.34535	7.36319	0.0
8.5387	88.9934	2.82	0.06	10.00	-20.00	7.326	5.34278	7.36505	2.0
8.5587	88.9934	2.82	0.06	10.00	-20.00	7.326	5.34021	7.36692	2.0
8.5787	88.9934	2.82	0.06	10.00	-20.00	7.326	5.33764	7.36878	8.0
8.5987	88.9934	2.82	0.06	10.00	-20.00	7.326	5.33506	7.37064	0.0
8.6187	88.9934	2.82	0.06	10.00	-20.00	7.326	5.33249	7.37251	6.0
8.6387	88.9934	2.82	0.06	10.00	-20.00	7.326	5.32992	7.37437	2.0
8.6587	88.9934	2.82	0.06	10.00	-20.00	7.326	5.32734	7.37623	2.0
8.6787	88.9934	2.82	0.06	10.00	-20.00	7.326	5.32477	7.37809	2.0
8.6987	88.9934	2.82	0.06	10.00	-20.00	7.326	5.32219	7.37994	4.0
8.7187	88.9934	2.82	0.06	10.00	-20.00	7.326	5.31962	7.38180	0.0
8.7387	88.9934	2.82	0.06	10.00	-20.00	7.326	5.31704	7.38366	0.0
8.7587	88.9934	2.82	0.06	10.00	-20.00	7.326	5.31446	7.38551	2.0
8.7787	88.9934	2.82	0.06	10.00	-20.00	7.326	5.31188	7.38737	2.0
8.7987	88.9934	2.82	0.06	10.00	-20.00	7.326	5.30930	7.38922	2.0
8.8187	88.9934	2.82	0.06	10.00	-20.00	7.326	5.30672	7.39108	0.0
8.8387	88.9934	2.82	0.06	10.00	-20.00	7.326	5.30414	7.39293	0.0
8.8587	88.9934	2.82	0.06	10.00	-20.00	7.326	5.30156	7.39478	2.0
8.8787	88.9934	2.82	0.06	10.00	-20.00	7.326	5.29898	7.39663	0.0
8.8987	88.9934	2.82	0.06	10.00	-20.00	7.326	5.29640	7.39848	0.0
8.9187	88.9934	2.82	0.06	10.00	-20.00	7.326	5.29382	7.40033	0.0
8.9387	88.9934	2.82	0.06	10.00	-20.00	7.326	5.29123	7.40217	2.0
8.9587	88.9934	2.82	0.06	10.00	-20.00	7.326	5.28865	7.40402	0.0
8.9787	88.9934	2.82	0.06	10.00	-20.00	7.326	5.28606	7.40587	2.0
8.9987	88.9934	2.82	0.06	10.00	-20.00	7.326	5.28348	7.40771	2.0
9.0187	88.9934	2.82	0.06	10.00	-20.00	7.326	5.28089	7.40955	2.0
9.0387	88.9934	2.82	0.06	10.00	-20.00	7.326	5.27831	7.41140	0.0
9.0587	88.9934	2.82	0.06	10.00	-20.00	7.326	5.27572	7.41324	0.0
9.0787	88.9934	2.82	0.06	10.00	-20.00	7.326	5.27313	7.41508	2.0
9.0987	88.9934	2.82	0.06	10.00	-20.00	7.326	5.27054	7.41692	0.0
9.1187	88.9934	2.82	0.06	10.00	-20.00	7.326	5.26795	7.41876	0.0
9.1387	88.9934	2.82	0.06	10.00	-20.00	7.326	5.26536	7.42060	0.0
9.1587	88.9934	2.82	0.06	10.00	-20.00	7.326	5.26277	7.42244	6.0
9.1787	88.9934	2.82	0.06	10.00	-20.00	7.326	5.26018	7.42427	0.0
9.1987	88.9934	2.82	0.06	10.00	-20.00	7.326	5.25759	7.42611	4.0
9.2187	88.9934	2.82	0.06	10.00	-20.00	7.326	5.25500	7.42794	2.0
9.2387	88.9934	2.82	0.06	10.00	-20.00	7.326	5.25240	7.42978	2.0
9.2587	88.9934	2.82	0.06	10.00	-20.00	7.326	5.24981	7.43161	4.0
9.2787	88.9934	2.82	0.06	10.00	-20.00	7.326	5.24721	7.43344	2.0
9.2987	88.9934	2.82	0.06	10.00	-20.00	7.326	5.24462	7.43527	2.0
9.3187	88.9934	2.82	0.06	10.00	-20.00	7.326	5.24202	7.43710	2.0
9.3387	88.9934	2.82	0.06	10.00	-20.00	7.326	5.23943	7.43893	4.0
9.3587	88.9934	2.82	0.06	10.00	-20.00	7.326	5.23683	7.44076	0.0
9.3787	88.9934	2.82	0.06	10.00	-20.00	7.326	5.23423	7.44259	0.0
9.3987	88.9934	2.82	0.06	10.00	-20.00	7.326	5.23163	7.44442	0.0
9.4187	88.9934	2.82	0.06	10.00	-20.00	7.326	5.22904	7.44624	0.0
9.4387	88.9934	2.82	0.06	10.00	-20.00	7.326	5.22644	7.44807	0.0
9.4587	88.9934	2.82	0.06	10.00	-20.00	7.326	5.22384	7.44989	0.0
9.4787	88.9934	2.82	0.06	10.00	-20.00	7.326	5.22124	7.45171	4.0
9.4987	88.9934	2.82	0.06	10.00	-20.00	7.326	5.21863	7.45353	0.0
9.5187	88.9934	2.82	0.06	10.00	-20.00	7.326	5.21603	7.45536	0.0
9.5387	88.9934	2.82	0.06	10.00	-20.00	7.326	5.21343	7.45718	2.0
9.5587	88.9934	2.82	0.06	10.00	-20.00	7.326	5.21083	7.45900	0.0
9.5787	88.9934	2.82	0.06	10.00	-20.00	7.326	5.20822	7.46081	2.0
9.5987	88.9934	2.82	0.06	10.00	-20.00	7.326	5.20562	7.46263	2.0
9.6187	88.9934	2.82	0.06	10.00	-20.00	7.326	5.20301	7.46445	0.0
9.6387	88.9934	2.82	0.06	10.00	-20.00	7.326	5.20041	7.46626	0.0
9.6587	88.9934	2.82	0.06	10.00	-20.00	7.326	5.19780	7.46808	2.0
9.6787	88.9934	2.82	0.06	10.00	-20.00	7.326	5.19519	7.46989	2.0
9.6987	88.9934	2.82	0.06	10.00	-20.00	7.326	5.19258	7.47171	0.0
9.7187	88.9934	2.82	0.06	10.00	-20.00	7.326	5.18998	7.47352	0.0
9.7387	88.9934	2.82	0.06	10.00	-20.00	7.326	5.18737	7.47533	4.0
9.7587	88.9934	2.82	0.06	10.00	-20.00	7.326	5.18476	7.47714	4.0
9.7787	88.9934	2.82	0.06	10.00	-20.00	7.326	5.18215	7.47895	4.0
9.7987	88.9934	2.82	0.06	10.00	-20.00	7.326	5.17954	7.48076	6.0
9.8187	88.9934	2.82	0.06	10.00	-20.00	7.326	5.17692	7.48256	2.0
9.8387	88.9934	2.82	0.06	10.00	-20.00	7.326	5.17431	7.48437	2.0
9.8587	88.9934	2.82	0.06	10.00	-20.00	7.326	5.17170	7.48618	0.0
9.8787	88.9934	2.82	0.06	10.00	-20.00	7.326	5.16909	7.48798	0.0
9.8987	88.9934	2.82	0.06	10.00	-20.00	7.326	5.16647	7.48979	0.0
9.9187	88.9934	2.82	0.06	10.00	-20.00	7.326	5.16386	7.49159	4.0
9.9387	88.9934	2.82	0.06	10.00	-20.00	7.326	5.16124	7.49339	0.0
9.9587	88.9934	2.82	0.06	10.00	-20.00	7.326	5.15863	7.49519	2.0
9.9787	88.9934	2.82	0.06	10.00	-20.00	7.326	5.15601	7.49699	0.0
9.9987	88.9934	2.82	0.06	10.00	-20.00	7.326	5.15339	7.49879	4.0
10.0187	88.9934	2.82	0.06	10.00	-20.00	7.326	5.15077	7.50059	0.0
10.0387	88.9934	2.82	0.06	10.00	-20.00	7.326	5.14815	7.50239	0.0

8.0487	89.0134	2.82	0.06	10.00	-20.00	7.326	5.40781	7.31945	4.0
8.0687	89.0134	2.82	0.06	10.00	-20.00	7.326	5.40525	7.32134	2.0
8.0887	89.0134	2.82	0.06	10.00	-20.00	7.326	5.40270	7.32322	2.0
8.1087	89.0134	2.82	0.06	10.00	-20.00	7.326	5.40014	7.32511	0.0
8.1287	89.0134	2.82	0.06	10.00	-20.00	7.326	5.39758	7.32699	0.0
8.1487	89.0134	2.82	0.06	10.00	-20.00	7.326	5.39503	7.32888	0.0
8.1687	89.0134	2.82	0.06	10.00	-20.00	7.326	5.39247	7.33076	0.0
8.1887	89.0134	2.82	0.06	10.00	-20.00	7.326	5.38991	7.33264	0.0
8.2087	89.0134	2.82	0.06	10.00	-20.00	7.326	5.38735	7.33452	2.0
8.2287	89.0134	2.82	0.06	10.00	-20.00	7.326	5.38479	7.33640	0.0
8.2487	89.0134	2.82	0.06	10.00	-20.00	7.326	5.38223	7.33828	0.0
8.2687	89.0134	2.82	0.06	10.00	-20.00	7.326	5.37966	7.34016	0.0
8.2887	89.0134	2.82	0.06	10.00	-20.00	7.326	5.37710	7.34204	4.0
8.3087	89.0134	2.82	0.06	10.00	-20.00	7.326	5.37454	7.34391	2.0
8.3287	89.0134	2.82	0.06	10.00	-20.00	7.326	5.37197	7.34579	2.0
8.3487	89.0134	2.82	0.06	10.00	-20.00	7.326	5.36941	7.34766	2.0
8.3687	89.0134	2.82	0.06	10.00	-20.00	7.326	5.36685	7.34954	0.0
8.3887	89.0134	2.82	0.06	10.00	-20.00	7.326	5.36428	7.35141	4.0
8.4087	89.0134	2.82	0.06	10.00	-20.00	7.326	5.36171	7.35328	2.0
8.4287	89.0134	2.82	0.06	10.00	-20.00	7.326	5.35915	7.35515	0.0
8.4487	89.0134	2.82	0.06	10.00	-20.00	7.326	5.35658	7.35702	0.0
8.4687	89.0134	2.82	0.06	10.00	-20.00	7.326	5.35401	7.35889	2.0
8.4887	89.0134	2.82	0.06	10.00	-20.00	7.326	5.35144	7.36076	2.0
8.5087	89.0134	2.82	0.06	10.00	-20.00	7.326	5.34887	7.36263	4.0
8.5287	89.0134	2.82	0.06	10.00	-20.00	7.326	5.34630	7.36450	0.0
8.5487	89.0134	2.82	0.06	10.00	-20.00	7.326	5.34373	7.36636	8.0
8.5687	89.0134	2.82	0.06	10.00	-20.00	7.326	5.34116	7.36823	4.0
8.5887	89.0134	2.82	0.06	10.00	-20.00	7.326	5.33859	7.37009	2.0
8.6087	89.0134	2.82	0.06	10.00	-20.00	7.326	5.33601	7.37195	2.0
8.6287	89.0134	2.82	0.06	10.00	-20.00	7.326	5.33344	7.37382	2.0
8.6487	89.0134	2.82	0.06	10.00	-20.00	7.326	5.33086	7.37568	0.0
8.6687	89.0134	2.82	0.06	10.00	-20.00	7.326	5.32829	7.37754	2.0
8.6887	89.0134	2.82	0.06	10.00	-20.00	7.326	5.32571	7.37940	0.0
8.7087	89.0134	2.82	0.06	10.00	-20.00	7.326	5.32314	7.38126	0.0
8.7287	89.0134	2.82	0.06	10.00	-20.00	7.326	5.32056	7.38311	0.0
8.7487	89.0134	2.82	0.06	10.00	-20.00	7.326	5.31798	7.38497	2.0
8.7687	89.0134	2.82	0.06	10.00	-20.00	7.326	5.31541	7.38683	2.0
8.7887	89.0134	2.82	0.06	10.00	-20.00	7.326	5.31283	7.38868	2.0
8.8087	89.0134	2.82	0.06	10.00	-20.00	7.326	5.31025	7.39054	2.0
8.8287	89.0134	2.82	0.06	10.00	-20.00	7.326	5.30767	7.39239	0.0
8.8487	89.0134	2.82	0.06	10.00	-20.00	7.326	5.30509	7.39424	2.0
8.8687	89.0134	2.82	0.06	10.00	-20.00	7.326	5.30250	7.39609	2.0
8.8887	89.0134	2.82	0.06	10.00	-20.00	7.326	5.29992	7.39794	2.0
8.9087	89.0134	2.82	0.06	10.00	-20.00	7.326	5.29734	7.39979	0.0
8.9287	89.0134	2.82	0.06	10.00	-20.00	7.326	5.29476	7.40164	2.0
8.9487	89.0134	2.82	0.06	10.00	-20.00	7.326	5.29217	7.40349	4.0
8.9687	89.0134	2.82	0.06	10.00	-20.00	7.326	5.28959	7.40534	0.0
8.9887	89.0134	2.82	0.06	10.00	-20.00	7.326	5.28700	7.40718	2.0
9.0087	89.0134	2.82	0.06	10.00	-20.00	7.326	5.28442	7.40903	0.0
9.0287	89.0134	2.82	0.06	10.00	-20.00	7.326	5.28183	7.41087	0.0
9.0487	89.0134	2.82	0.06	10.00	-20.00	7.326	5.27924	7.41271	2.0
9.0687	89.0134	2.82	0.06	10.00	-20.00	7.326	5.27666	7.41456	4.0
9.0887	89.0134	2.82	0.06	10.00	-20.00	7.326	5.27407	7.41640	2.0
9.1087	89.0134	2.82	0.06	10.00	-20.00	7.326	5.27148	7.41824	2.0
9.1287	89.0134	2.82	0.06	10.00	-20.00	7.326	5.26889	7.42008	4.0
9.1487	89.0134	2.82	0.06	10.00	-20.00	7.326	5.26630	7.42192	2.0
9.1687	89.0134	2.82	0.06	10.00	-20.00	7.326	5.26371	7.42375	0.0
9.1887	89.0134	2.82	0.06	10.00	-20.00	7.326	5.26111	7.42559	8.0
9.2087	89.0134	2.82	0.06	10.00	-20.00	7.326	5.25852	7.42743	2.0
9.2287	89.0134	2.82	0.06	10.00	-20.00	7.326	5.25593	7.42926	2.0
9.2487	89.0134	2.82	0.06	10.00	-20.00	7.326	5.25334	7.43110	2.0
9.2687	89.0134	2.82	0.06	10.00	-20.00	7.326	5.25074	7.43293	2.0
9.2887	89.0134	2.82	0.06	10.00	-20.00	7.326	5.24815	7.43476	0.0
9.3087	89.0134	2.82	0.06	10.00	-20.00	7.326	5.24555	7.43659	0.0
9.3287	89.0134	2.82	0.06	10.00	-20.00	7.326	5.24295	7.43842	8.0
9.3487	89.0134	2.82	0.06	10.00	-20.00	7.326	5.24036	7.44025	0.0
9.3687	89.0134	2.82	0.06	10.00	-20.00	7.326	5.23776	7.44208	0.0
9.3887	89.0134	2.82	0.06	10.00	-20.00	7.326	5.23516	7.44391	2.0
9.4087	89.0134	2.82	0.06	10.00	-20.00	7.326	5.23256	7.44574	0.0
9.4287	89.0134	2.82	0.06	10.00	-20.00	7.326	5.22996	7.44756	0.0
9.4487	89.0134	2.82	0.06	10.00	-20.00	7.326	5.22736	7.44939	2.0
9.4687	89.0134	2.82	0.06	10.00	-20.00	7.326	5.22476	7.45121	2.0
9.4887	89.0134	2.82	0.06	10.00	-20.00	7.326	5.22216	7.45304	6.0
9.5087	89.0134	2.82	0.06	10.00	-20.00	7.326	5.21956	7.45486	4.0
9.5287	89.0134	2.82	0.06	10.00	-20.00	7.326	5.21696	7.45668	0.0
9.5487	89.0134	2.82	0.06	10.00	-20.00	7.326	5.21435	7.45850	2.0
9.5687	89.0134	2.82	0.06	10.00	-20.00	7.326	5.21175	7.46032	4.0
9.5887	89.0134	2.82	0.06	10.00	-20.00	7.326	5.20915	7.46214	0.0
9.6087	89.0134	2.82	0.06	10.00	-20.00	7.326	5.20654	7.46396	2.0
9.6287	89.0134	2.82	0.06	10.00	-20.00	7.326	5.20394	7.46577	2.0
9.6487	89.0134	2.82	0.06	10.00	-20.00	7.326	5.20133	7.46759	4.0
9.6687	89.0134	2.82	0.06	10.00	-20.00	7.326	5.19872	7.46941	0.0
9.6887	89.0134	2.82	0.06	10.00	-20.00	7.326	5.19611	7.47122	0.0
9.7087	89.0134	2.82	0.06	10.00	-20.00	7.326	5.19351	7.47303	4.0
9.7287	89.0134	2.82	0.06	10.00	-20.00	7.326	5.19090	7.47485	2.0
9.7487	89.0134	2.82	0.06	10.00	-20.00	7.326	5.18829	7.47666	0.0
9.7687	89.0134	2.82	0.06	10.00	-20.00	7.326	5.18568	7.47847	0.0
9.7887	89.0134	2.82	0.06	10.00	-20.00	7.326	5.18307	7.48028	0.0
9.8087	89.0134	2.82	0.06	10.00	-20.00	7.326	5.18046	7.48209	2.0
9.8287	89.0134	2.82	0.06	10.00	-20.00	7.326	5.17784	7.48389	2.0
9.8487	89.0134	2.82	0.06	10.00	-20.00	7.326	5.17523	7.48570	2.0
9.8687	89.0134	2.82	0.06	10.00	-20.00	7.326	5.17262	7.48751	6.0
9.8887	89.0134	2.82	0.06	10.00	-20.00	7.326	5.17000	7.48931	0.0
9.9087	89.0134	2.82	0.06	10.00	-20.00	7.326	5.16739	7.49112	2.0
9.9287	89.0134	2.82	0.06	10.00	-20.00	7.326	5.16477	7.49292	0.0
9.9487	89.0134	2.82	0.06	10.00	-20.00	7.326	5.16216	7.49472	4.0
9.9687	89.0134	2.82	0.06	10.00	-20.00	7.326	5.15954	7.49652	4.0
9.9887	89.0134	2.82	0.06	10.00	-20.00	7.326	5.15692	7.49832	0.0
10.0087	89.0134	2.82	0.06	10.00	-20.00	7.326	5.15431	7.50012	4.0
10.0287	89.0134	2.82	0.06	10.00	-20.00	7.326	5.15169	7.50192	2.0
10.0487	89.0134	2.82	0.06	10.00	-20.00	7.326	5.14907	7.50372	2.0

8.0587	89.0334	2.82	0.06	10.00	-20.00	7.326	5.40877	7.32075	0.0
8.0787	89.0334	2.82	0.06	10.00	-20.00	7.326	5.40621	7.32264	0.0
8.0987	89.0334	2.82	0.06	10.00	-20.00	7.326	5.40366	7.32452	0.0
8.1187	89.0334	2.82	0.06	10.00	-20.00	7.326	5.40110	7.32641	0.0
8.1387	89.0334	2.82	0.06	10.00	-20.00	7.326	5.39854	7.32829	0.0
8.1587	89.0334	2.82	0.06	10.00	-20.00	7.326	5.39598	7.33018	2.0
8.1787	89.0334	2.82	0.06	10.00	-20.00	7.326	5.39342	7.33206	2.0
8.1987	89.0334	2.82	0.06	10.00	-20.00	7.326	5.39086	7.33394	4.0
8.2187	89.0334	2.82	0.06	10.00	-20.00	7.326	5.38830	7.33582	2.0
8.2387	89.0334	2.82	0.06	10.00	-20.00	7.326	5.38574	7.33770	2.0
8.2587	89.0334	2.82	0.06	10.00	-20.00	7.326	5.38318	7.33958	2.0
8.2787	89.0334	2.82	0.06	10.00	-20.00	7.326	5.38062	7.34146	0.0
8.2987	89.0334	2.82	0.06	10.00	-20.00	7.326	5.37806	7.34334	0.0
8.3187	89.0334	2.82	0.06	10.00	-20.00	7.326	5.37549	7.34522	0.0
8.3387	89.0334	2.82	0.06	10.00	-20.00	7.326	5.37293	7.34709	4.0
8.3587	89.0334	2.82	0.06	10.00	-20.00	7.326	5.37036	7.34897	0.0
8.3787	89.0334	2.82	0.06	10.00	-20.00	7.326	5.36780	7.35084	0.0
8.3987	89.0334	2.82	0.06	10.00	-20.00	7.326	5.36523	7.35272	2.0
8.4187	89.0334	2.82	0.06	10.00	-20.00	7.326	5.36266	7.35459	0.0
8.4387	89.0334	2.82	0.06	10.00	-20.00	7.326	5.36010	7.35646	2.0
8.4587	89.0334	2.82	0.06	10.00	-20.00	7.326	5.35753	7.35833	0.0
8.4787	89.0334	2.82	0.06	10.00	-20.00	7.326	5.35496	7.36020	2.0
8.4987	89.0334	2.82	0.06	10.00	-20.00	7.326	5.35239	7.36207	0.0
8.5187	89.0334	2.82	0.06	10.00	-20.00	7.326	5.34982	7.36394	2.0
8.5387	89.0334	2.82	0.06	10.00	-20.00	7.326	5.34725	7.36580	0.0
8.5587	89.0334	2.82	0.06	10.00	-20.00	7.326	5.34468	7.36767	2.0
8.5787	89.0334	2.82	0.06	10.00	-20.00	7.326	5.34211	7.36954	4.0
8.5987	89.0334	2.82	0.06	10.00	-20.00	7.326	5.33953	7.37140	0.0
8.6187	89.0334	2.82	0.06	10.00	-20.00	7.326	5.33696	7.37326	0.0
8.6387	89.0334	2.82	0.06	10.00	-20.00	7.326	5.33439	7.37513	0.0
8.6587	89.0334	2.82	0.06	10.00	-20.00	7.326	5.33181	7.37699	4.0
8.6787	89.0334	2.82	0.06	10.00	-20.00	7.326	5.32924	7.37885	0.0
8.6987	89.0334	2.82	0.06	10.00	-20.00	7.326	5.32666	7.38071	4.0
8.7187	89.0334	2.82	0.06	10.00	-20.00	7.326	5.32408	7.38257	2.0
8.7387	89.0334	2.82	0.06	10.00	-20.00	7.326	5.32151	7.38442	2.0
8.7587	89.0334	2.82	0.06	10.00	-20.00	7.326	5.31893	7.38628	2.0
8.7787	89.0334	2.82	0.06	10.00	-20.00	7.326	5.31635	7.38814	0.0
8.7987	89.0334	2.82	0.06	10.00	-20.00	7.326	5.31377	7.38999	2.0
8.8187	89.0334	2.82	0.06	10.00	-20.00	7.326	5.31119	7.39185	0.0
8.8387	89.0334	2.82	0.06	10.00	-20.00	7.326	5.30861	7.39370	0.0
8.8587	89.0334	2.82	0.06	10.00	-20.00	7.326	5.30603	7.39555	0.0
8.8787	89.0334	2.82	0.06	10.00	-20.00	7.326	5.30345	7.39741	6.0
8.8987	89.0334	2.82	0.06	10.00	-20.00	7.326	5.30086	7.39926	2.0
8.9187	89.0334	2.82	0.06	10.00	-20.00	7.326	5.29828	7.40111	2.0
8.9387	89.0334	2.82	0.06	10.00	-20.00	7.326	5.29570	7.40295	0.0
8.9587	89.0334	2.82	0.06	10.00	-20.00	7.326	5.29311	7.40480	2.0
8.9787	89.0334	2.82	0.06	10.00	-20.00	7.326	5.29053	7.40665	0.0
8.9987	89.0334	2.82	0.06	10.00	-20.00	7.326	5.28794	7.40850	0.0
9.0187	89.0334	2.82	0.06	10.00	-20.00	7.326	5.28536	7.41034	0.0
9.0387	89.0334	2.82	0.06	10.00	-20.00	7.326	5.28277	7.41219	0.0
9.0587	89.0334	2.82	0.06	10.00	-20.00	7.326	5.28018	7.41403	2.0
9.0787	89.0334	2.82	0.06	10.00	-20.00	7.326	5.27759	7.41587	0.0
9.0987	89.0334	2.82	0.06	10.00	-20.00	7.326	5.27500	7.41771	2.0
9.1187	89.0334	2.82	0.06	10.00	-20.00	7.326	5.27241	7.41956	0.0
9.1387	89.0334	2.82	0.06	10.00	-20.00	7.326	5.26982	7.42140	2.0
9.1587	89.0334	2.82	0.06	10.00	-20.00	7.326	5.26723	7.42323	2.0
9.1787	89.0334	2.82	0.06	10.00	-20.00	7.326	5.26464	7.42507	2.0
9.1987	89.0334	2.82	0.06	10.00	-20.00	7.326	5.26205	7.42691	4.0
9.2187	89.0334	2.82	0.06	10.00	-20.00	7.326	5.25946	7.42875	0.0
9.2387	89.0334	2.82	0.06	10.00	-20.00	7.326	5.25686	7.43058	0.0
9.2587	89.0334	2.82	0.06	10.00	-20.00	7.326	5.25427	7.43242	4.0
9.2787	89.0334	2.82	0.06	10.00	-20.00	7.326	5.25167	7.43425	0.0
9.2987	89.0334	2.82	0.06	10.00	-20.00	7.326	5.24908	7.43608	0.0
9.3187	89.0334	2.82	0.06	10.00	-20.00	7.326	5.24648	7.43791	0.0
9.3387	89.0334	2.82	0.06	10.00	-20.00	7.326	5.24389	7.43974	4.0
9.3587	89.0334	2.82	0.06	10.00	-20.00	7.326	5.24129	7.44158	2.0
9.3787	89.0334	2.82	0.06	10.00	-20.00	7.326	5.23869	7.44340	4.0
9.3987	89.0334	2.82	0.06	10.00	-20.00	7.326	5.23609	7.44523	6.0
9.4187	89.0334	2.82	0.06	10.00	-20.00	7.326	5.23349	7.44706	0.0
9.4387	89.0334	2.82	0.06	10.00	-20.00	7.326	5.23089	7.44889	0.0
9.4587	89.0334	2.82	0.06	10.00	-20.00	7.326	5.22829	7.45071	4.0
9.4787	89.0334	2.82	0.06	10.00	-20.00	7.326	5.22569	7.45254	2.0
9.4987	89.0334	2.82	0.06	10.00	-20.00	7.326	5.22309	7.45436	2.0
9.5187	89.0334	2.82	0.06	10.00	-20.00	7.326	5.22049	7.45618	0.0
9.5387	89.0334	2.82	0.06	10.00	-20.00	7.326	5.21788	7.45800	2.0
9.5587	89.0334	2.82	0.06	10.00	-20.00	7.326	5.21528	7.45983	0.0
9.5787	89.0334	2.82	0.06	10.00	-20.00	7.326	5.21268	7.46165	0.0
9.5987	89.0334	2.82	0.06	10.00	-20.00	7.326	5.21007	7.46346	0.0
9.6187	89.0334	2.82	0.06	10.00	-20.00	7.326	5.20747	7.46528	0.0
9.6387	89.0334	2.82	0.06	10.00	-20.00	7.326	5.20486	7.46710	4.0
9.6587	89.0334	2.82	0.06	10.00	-20.00	7.326	5.20225	7.46892	0.0
9.6787	89.0334	2.82	0.06	10.00	-20.00	7.326	5.19965	7.47073	2.0
9.6987	89.0334	2.82	0.06	10.00	-20.00	7.326	5.19704	7.47255	4.0
9.7187	89.0334	2.82	0.06	10.00	-20.00	7.326	5.19443	7.47436	0.0
9.7387	89.0334	2.82	0.06	10.00	-20.00	7.326	5.19182	7.47617	0.0
9.7587	89.0334	2.82	0.06	10.00	-20.00	7.326	5.18921	7.47798	0.0
9.7787	89.0334	2.82	0.06	10.00	-20.00	7.326	5.18660	7.47980	0.0
9.7987	89.0334	2.82	0.06	10.00	-20.00	7.326	5.18399	7.48161	4.0
9.8187	89.0334	2.82	0.06	10.00	-20.00	7.326	5.18138	7.48341	4.0
9.8387	89.0334	2.82	0.06	10.00	-20.00	7.326	5.17876	7.48522	0.0
9.8587	89.0334	2.82	0.06	10.00	-20.00	7.326	5.17615	7.48703	2.0
9.8787	89.0334	2.82	0.06	10.00	-20.00	7.326	5.17354	7.48884	2.0
9.8987	89.0334	2.82	0.06	10.00	-20.00	7.326	5.17092	7.49064	0.0
9.9187	89.0334	2.82	0.06	10.00	-20.00	7.326	5.16831	7.49245	2.0
9.9387	89.0334	2.82	0.06	10.00	-20.00	7.326	5.16569	7.49425	2.0
9.9587	89.0334	2.82	0.06	10.00	-20.00	7.326	5.16307	7.49605	2.0
9.9787	89.0334	2.82	0.06	10.00	-20.00	7.326	5.16046	7.49785	0.0
9.9987	89.0334	2.82	0.06	10.00	-20.00	7.326	5.15784	7.49966	2.0
10.0187	89.0334	2.82	0.06	10.00	-20.00	7.326	5.15522	7.50146	2.0
10.0387	89.0334	2.82	0.06	10.00	-20.00	7.326	5.15260	7.50325	4.0
10.0587	89.0334	2.82	0.06	10.00	-20.00	7.326	5.14998	7.50505	0.0