File: Data/Omega/2.0deg-2.0deg-rsm-3h10mins_11352-as-grown_224_w-scans.dat
# filename: 2.0deg-2.0deg-rsm-3h10mins_11352-as-grown_224.dat
# reflection: (004)
# type: rotated into a series of omega scans
# x-axis: Omega_2Theta
#
# Omega	2Theta	Phi  	Chi   	X    	Y    	Z    	q_para	q_perp	Intensity
# [deg]	[deg] 	[deg]	[deg] 	[mm] 	[mm] 	[mm] 	[nm-1]	[nm-1]	[counts/s]
6.1511	85.0724	1.28	0.08	-30.00	20.00	7.317	5.20645	7.06570	0.0
6.1711	85.0724	1.28	0.08	-30.00	20.00	7.317	5.20398	7.06752	2.0
6.1911	85.0724	1.28	0.08	-30.00	20.00	7.317	5.20151	7.06933	4.0
6.2111	85.0724	1.28	0.08	-30.00	20.00	7.317	5.19905	7.07115	0.0
6.2311	85.0724	1.28	0.08	-30.00	20.00	7.317	5.19658	7.07296	4.0
6.2511	85.0724	1.28	0.08	-30.00	20.00	7.317	5.19411	7.07478	0.0
6.2711	85.0724	1.28	0.08	-30.00	20.00	7.317	5.19164	7.07659	2.0
6.2911	85.0724	1.28	0.08	-30.00	20.00	7.317	5.18917	7.07840	0.0
6.3111	85.0724	1.28	0.08	-30.00	20.00	7.317	5.18670	7.08021	0.0
6.3311	85.0724	1.28	0.08	-30.00	20.00	7.317	5.18422	7.08202	4.0
6.3511	85.0724	1.28	0.08	-30.00	20.00	7.317	5.18175	7.08383	2.0
6.3711	85.0724	1.28	0.08	-30.00	20.00	7.317	5.17928	7.08564	0.0
6.3911	85.0724	1.28	0.08	-30.00	20.00	7.317	5.17681	7.08745	0.0
6.4111	85.0724	1.28	0.08	-30.00	20.00	7.317	5.17433	7.08925	0.0
6.4311	85.0724	1.28	0.08	-30.00	20.00	7.317	5.17186	7.09106	4.0
6.4511	85.0724	1.28	0.08	-30.00	20.00	7.317	5.16938	7.09286	4.0
6.4711	85.0724	1.28	0.08	-30.00	20.00	7.317	5.16690	7.09467	0.0
6.4911	85.0724	1.28	0.08	-30.00	20.00	7.317	5.16443	7.09647	0.0
6.5111	85.0724	1.28	0.08	-30.00	20.00	7.317	5.16195	7.09827	0.0
6.5311	85.0724	1.28	0.08	-30.00	20.00	7.317	5.15947	7.10008	2.0
6.5511	85.0724	1.28	0.08	-30.00	20.00	7.317	5.15699	7.10188	0.0
6.5711	85.0724	1.28	0.08	-30.00	20.00	7.317	5.15451	7.10368	4.0
6.5911	85.0724	1.28	0.08	-30.00	20.00	7.317	5.15203	7.10547	2.0
6.6111	85.0724	1.28	0.08	-30.00	20.00	7.317	5.14955	7.10727	0.0
6.6311	85.0724	1.28	0.08	-30.00	20.00	7.317	5.14707	7.10907	4.0
6.6511	85.0724	1.28	0.08	-30.00	20.00	7.317	5.14459	7.11087	2.0
6.6711	85.0724	1.28	0.08	-30.00	20.00	7.317	5.14211	7.11266	0.0
6.6911	85.0724	1.28	0.08	-30.00	20.00	7.317	5.13963	7.11446	0.0
6.7111	85.0724	1.28	0.08	-30.00	20.00	7.317	5.13714	7.11625	2.0
6.7311	85.0724	1.28	0.08	-30.00	20.00	7.317	5.13466	7.11804	6.0
6.7511	85.0724	1.28	0.08	-30.00	20.00	7.317	5.13217	7.11983	2.0
6.7711	85.0724	1.28	0.08	-30.00	20.00	7.317	5.12969	7.12163	4.0
6.7911	85.0724	1.28	0.08	-30.00	20.00	7.317	5.12720	7.12342	0.0
6.8111	85.0724	1.28	0.08	-30.00	20.00	7.317	5.12471	7.12520	0.0
6.8311	85.0724	1.28	0.08	-30.00	20.00	7.317	5.12223	7.12699	2.0
6.8511	85.0724	1.28	0.08	-30.00	20.00	7.317	5.11974	7.12878	0.0
6.8711	85.0724	1.28	0.08	-30.00	20.00	7.317	5.11725	7.13057	0.0
6.8911	85.0724	1.28	0.08	-30.00	20.00	7.317	5.11476	7.13235	2.0
6.9111	85.0724	1.28	0.08	-30.00	20.00	7.317	5.11227	7.13414	0.0
6.9311	85.0724	1.28	0.08	-30.00	20.00	7.317	5.10978	7.13592	0.0
6.9511	85.0724	1.28	0.08	-30.00	20.00	7.317	5.10729	7.13771	6.0
6.9711	85.0724	1.28	0.08	-30.00	20.00	7.317	5.10480	7.13949	2.0
6.9911	85.0724	1.28	0.08	-30.00	20.00	7.317	5.10230	7.14127	0.0
7.0111	85.0724	1.28	0.08	-30.00	20.00	7.317	5.09981	7.14305	0.0
7.0311	85.0724	1.28	0.08	-30.00	20.00	7.317	5.09732	7.14483	0.0
7.0511	85.0724	1.28	0.08	-30.00	20.00	7.317	5.09482	7.14661	2.0
7.0711	85.0724	1.28	0.08	-30.00	20.00	7.317	5.09233	7.14839	0.0
7.0911	85.0724	1.28	0.08	-30.00	20.00	7.317	5.08983	7.15016	2.0
7.1111	85.0724	1.28	0.08	-30.00	20.00	7.317	5.08734	7.15194	2.0
7.1311	85.0724	1.28	0.08	-30.00	20.00	7.317	5.08484	7.15372	2.0
7.1511	85.0724	1.28	0.08	-30.00	20.00	7.317	5.08234	7.15549	0.0
7.1711	85.0724	1.28	0.08	-30.00	20.00	7.317	5.07984	7.15726	2.0
7.1911	85.0724	1.28	0.08	-30.00	20.00	7.317	5.07735	7.15904	2.0
7.2111	85.0724	1.28	0.08	-30.00	20.00	7.317	5.07485	7.16081	0.0
7.2311	85.0724	1.28	0.08	-30.00	20.00	7.317	5.07235	7.16258	0.0
7.2511	85.0724	1.28	0.08	-30.00	20.00	7.317	5.06985	7.16435	0.0
7.2711	85.0724	1.28	0.08	-30.00	20.00	7.317	5.06734	7.16612	0.0
7.2911	85.0724	1.28	0.08	-30.00	20.00	7.317	5.06484	7.16789	0.0
7.3111	85.0724	1.28	0.08	-30.00	20.00	7.317	5.06234	7.16965	0.0
7.3311	85.0724	1.28	0.08	-30.00	20.00	7.317	5.05984	7.17142	2.0
7.3511	85.0724	1.28	0.08	-30.00	20.00	7.317	5.05733	7.17319	2.0
7.3711	85.0724	1.28	0.08	-30.00	20.00	7.317	5.05483	7.17495	0.0
7.3911	85.0724	1.28	0.08	-30.00	20.00	7.317	5.05232	7.17672	2.0
7.4111	85.0724	1.28	0.08	-30.00	20.00	7.317	5.04982	7.17848	0.0
7.4311	85.0724	1.28	0.08	-30.00	20.00	7.317	5.04731	7.18024	6.0
7.4511	85.0724	1.28	0.08	-30.00	20.00	7.317	5.04481	7.18200	2.0
7.4711	85.0724	1.28	0.08	-30.00	20.00	7.317	5.04230	7.18376	0.0
7.4911	85.0724	1.28	0.08	-30.00	20.00	7.317	5.03979	7.18552	0.0
7.5111	85.0724	1.28	0.08	-30.00	20.00	7.317	5.03728	7.18728	2.0
7.5311	85.0724	1.28	0.08	-30.00	20.00	7.317	5.03477	7.18904	2.0
7.5511	85.0724	1.28	0.08	-30.00	20.00	7.317	5.03226	7.19080	6.0
7.5711	85.0724	1.28	0.08	-30.00	20.00	7.317	5.02975	7.19255	2.0
7.5911	85.0724	1.28	0.08	-30.00	20.00	7.317	5.02724	7.19431	4.0
7.6111	85.0724	1.28	0.08	-30.00	20.00	7.317	5.02473	7.19606	4.0
7.6311	85.0724	1.28	0.08	-30.00	20.00	7.317	5.02222	7.19782	4.0
7.6511	85.0724	1.28	0.08	-30.00	20.00	7.317	5.01971	7.19957	0.0
7.6711	85.0724	1.28	0.08	-30.00	20.00	7.317	5.01719	7.20132	6.0
7.6911	85.0724	1.28	0.08	-30.00	20.00	7.317	5.01468	7.20307	2.0
7.7111	85.0724	1.28	0.08	-30.00	20.00	7.317	5.01216	7.20482	0.0
7.7311	85.0724	1.28	0.08	-30.00	20.00	7.317	5.00965	7.20657	2.0
7.7511	85.0724	1.28	0.08	-30.00	20.00	7.317	5.00713	7.20832	0.0
7.7711	85.0724	1.28	0.08	-30.00	20.00	7.317	5.00462	7.21007	0.0
7.7911	85.0724	1.28	0.08	-30.00	20.00	7.317	5.00210	7.21181	0.0
7.8111	85.0724	1.28	0.08	-30.00	20.00	7.317	4.99958	7.21356	0.0
7.8311	85.0724	1.28	0.08	-30.00	20.00	7.317	4.99706	7.21530	0.0
7.8511	85.0724	1.28	0.08	-30.00	20.00	7.317	4.99454	7.21705	4.0
7.8711	85.0724	1.28	0.08	-30.00	20.00	7.317	4.99202	7.21879	2.0
7.8911	85.0724	1.28	0.08	-30.00	20.00	7.317	4.98950	7.22053	0.0
7.9111	85.0724	1.28	0.08	-30.00	20.00	7.317	4.98698	7.22227	0.0
7.9311	85.0724	1.28	0.08	-30.00	20.00	7.317	4.98446	7.22401	0.0
7.9511	85.0724	1.28	0.08	-30.00	20.00	7.317	4.98194	7.22575	2.0
7.9711	85.0724	1.28	0.08	-30.00	20.00	7.317	4.97942	7.22749	0.0
7.9911	85.0724	1.28	0.08	-30.00	20.00	7.317	4.97689	7.22923	0.0
8.0111	85.0724	1.28	0.08	-30.00	20.00	7.317	4.97437	7.23097	0.0
8.0311	85.0724	1.28	0.08	-30.00	20.00	7.317	4.97185	7.23270	0.0
8.0511	85.0724	1.28	0.08	-30.00	20.00	7.317	4.96932	7.23444	0.0
8.0711	85.0724	1.28	0.08	-30.00	20.00	7.317	4.96680	7.23617	0.0
8.0911	85.0724	1.28	0.08	-30.00	20.00	7.317	4.96427	7.23790	2.0
8.1111	85.0724	1.28	0.08	-30.00	20.00	7.317	4.96174	7.23964	0.0
8.1311	85.0724	1.28	0.08	-30.00	20.00	7.317	4.95922	7.24137	4.0
8.1511	85.0724	1.28	0.08	-30.00	20.00	7.317	4.95669	7.24310	0.0

6.1611	85.0924	1.28	0.08	-30.00	20.00	7.317	5.20744	7.06704	0.0
6.1811	85.0924	1.28	0.08	-30.00	20.00	7.317	5.20497	7.06886	4.0
6.2011	85.0924	1.28	0.08	-30.00	20.00	7.317	5.20250	7.07068	2.0
6.2211	85.0924	1.28	0.08	-30.00	20.00	7.317	5.20004	7.07249	2.0
6.2411	85.0924	1.28	0.08	-30.00	20.00	7.317	5.19757	7.07431	2.0
6.2611	85.0924	1.28	0.08	-30.00	20.00	7.317	5.19510	7.07612	0.0
6.2811	85.0924	1.28	0.08	-30.00	20.00	7.317	5.19263	7.07794	2.0
6.3011	85.0924	1.28	0.08	-30.00	20.00	7.317	5.19015	7.07975	0.0
6.3211	85.0924	1.28	0.08	-30.00	20.00	7.317	5.18768	7.08156	2.0
6.3411	85.0924	1.28	0.08	-30.00	20.00	7.317	5.18521	7.08337	0.0
6.3611	85.0924	1.28	0.08	-30.00	20.00	7.317	5.18274	7.08518	0.0
6.3811	85.0924	1.28	0.08	-30.00	20.00	7.317	5.18026	7.08699	0.0
6.4011	85.0924	1.28	0.08	-30.00	20.00	7.317	5.17779	7.08880	0.0
6.4211	85.0924	1.28	0.08	-30.00	20.00	7.317	5.17532	7.09060	2.0
6.4411	85.0924	1.28	0.08	-30.00	20.00	7.317	5.17284	7.09241	2.0
6.4611	85.0924	1.28	0.08	-30.00	20.00	7.317	5.17036	7.09421	0.0
6.4811	85.0924	1.28	0.08	-30.00	20.00	7.317	5.16789	7.09602	0.0
6.5011	85.0924	1.28	0.08	-30.00	20.00	7.317	5.16541	7.09782	0.0
6.5211	85.0924	1.28	0.08	-30.00	20.00	7.317	5.16293	7.09962	0.0
6.5411	85.0924	1.28	0.08	-30.00	20.00	7.317	5.16045	7.10143	2.0
6.5611	85.0924	1.28	0.08	-30.00	20.00	7.317	5.15797	7.10323	2.0
6.5811	85.0924	1.28	0.08	-30.00	20.00	7.317	5.15549	7.10503	2.0
6.6011	85.0924	1.28	0.08	-30.00	20.00	7.317	5.15301	7.10683	4.0
6.6211	85.0924	1.28	0.08	-30.00	20.00	7.317	5.15053	7.10862	2.0
6.6411	85.0924	1.28	0.08	-30.00	20.00	7.317	5.14805	7.11042	2.0
6.6611	85.0924	1.28	0.08	-30.00	20.00	7.317	5.14557	7.11222	0.0
6.6811	85.0924	1.28	0.08	-30.00	20.00	7.317	5.14309	7.11401	2.0
6.7011	85.0924	1.28	0.08	-30.00	20.00	7.317	5.14060	7.11581	2.0
6.7211	85.0924	1.28	0.08	-30.00	20.00	7.317	5.13812	7.11760	0.0
6.7411	85.0924	1.28	0.08	-30.00	20.00	7.317	5.13563	7.11940	4.0
6.7611	85.0924	1.28	0.08	-30.00	20.00	7.317	5.13315	7.12119	2.0
6.7811	85.0924	1.28	0.08	-30.00	20.00	7.317	5.13066	7.12298	0.0
6.8011	85.0924	1.28	0.08	-30.00	20.00	7.317	5.12818	7.12477	0.0
6.8211	85.0924	1.28	0.08	-30.00	20.00	7.317	5.12569	7.12656	6.0
6.8411	85.0924	1.28	0.08	-30.00	20.00	7.317	5.12320	7.12835	0.0
6.8611	85.0924	1.28	0.08	-30.00	20.00	7.317	5.12071	7.13014	0.0
6.8811	85.0924	1.28	0.08	-30.00	20.00	7.317	5.11822	7.13192	0.0
6.9011	85.0924	1.28	0.08	-30.00	20.00	7.317	5.11573	7.13371	0.0
6.9211	85.0924	1.28	0.08	-30.00	20.00	7.317	5.11324	7.13550	4.0
6.9411	85.0924	1.28	0.08	-30.00	20.00	7.317	5.11075	7.13728	2.0
6.9611	85.0924	1.28	0.08	-30.00	20.00	7.317	5.10826	7.13906	2.0
6.9811	85.0924	1.28	0.08	-30.00	20.00	7.317	5.10577	7.14085	0.0
7.0011	85.0924	1.28	0.08	-30.00	20.00	7.317	5.10327	7.14263	0.0
7.0211	85.0924	1.28	0.08	-30.00	20.00	7.317	5.10078	7.14441	2.0
7.0411	85.0924	1.28	0.08	-30.00	20.00	7.317	5.09829	7.14619	0.0
7.0611	85.0924	1.28	0.08	-30.00	20.00	7.317	5.09579	7.14797	4.0
7.0811	85.0924	1.28	0.08	-30.00	20.00	7.317	5.09330	7.14975	2.0
7.1011	85.0924	1.28	0.08	-30.00	20.00	7.317	5.09080	7.15152	0.0
7.1211	85.0924	1.28	0.08	-30.00	20.00	7.317	5.08830	7.15330	0.0
7.1411	85.0924	1.28	0.08	-30.00	20.00	7.317	5.08581	7.15508	0.0
7.1611	85.0924	1.28	0.08	-30.00	20.00	7.317	5.08331	7.15685	4.0
7.1811	85.0924	1.28	0.08	-30.00	20.00	7.317	5.08081	7.15862	4.0
7.2011	85.0924	1.28	0.08	-30.00	20.00	7.317	5.07831	7.16040	2.0
7.2211	85.0924	1.28	0.08	-30.00	20.00	7.317	5.07581	7.16217	4.0
7.2411	85.0924	1.28	0.08	-30.00	20.00	7.317	5.07331	7.16394	0.0
7.2611	85.0924	1.28	0.08	-30.00	20.00	7.317	5.07081	7.16571	0.0
7.2811	85.0924	1.28	0.08	-30.00	20.00	7.317	5.06831	7.16748	0.0
7.3011	85.0924	1.28	0.08	-30.00	20.00	7.317	5.06581	7.16925	4.0
7.3211	85.0924	1.28	0.08	-30.00	20.00	7.317	5.06330	7.17102	2.0
7.3411	85.0924	1.28	0.08	-30.00	20.00	7.317	5.06080	7.17279	2.0
7.3611	85.0924	1.28	0.08	-30.00	20.00	7.317	5.05830	7.17455	2.0
7.3811	85.0924	1.28	0.08	-30.00	20.00	7.317	5.05579	7.17632	2.0
7.4011	85.0924	1.28	0.08	-30.00	20.00	7.317	5.05329	7.17808	4.0
7.4211	85.0924	1.28	0.08	-30.00	20.00	7.317	5.05078	7.17984	6.0
7.4411	85.0924	1.28	0.08	-30.00	20.00	7.317	5.04827	7.18161	2.0
7.4611	85.0924	1.28	0.08	-30.00	20.00	7.317	5.04577	7.18337	2.0
7.4811	85.0924	1.28	0.08	-30.00	20.00	7.317	5.04326	7.18513	0.0
7.5011	85.0924	1.28	0.08	-30.00	20.00	7.317	5.04075	7.18689	0.0
7.5211	85.0924	1.28	0.08	-30.00	20.00	7.317	5.03824	7.18865	2.0
7.5411	85.0924	1.28	0.08	-30.00	20.00	7.317	5.03573	7.19041	0.0
7.5611	85.0924	1.28	0.08	-30.00	20.00	7.317	5.03322	7.19216	0.0
7.5811	85.0924	1.28	0.08	-30.00	20.00	7.317	5.03071	7.19392	2.0
7.6011	85.0924	1.28	0.08	-30.00	20.00	7.317	5.02820	7.19568	2.0
7.6211	85.0924	1.28	0.08	-30.00	20.00	7.317	5.02569	7.19743	2.0
7.6411	85.0924	1.28	0.08	-30.00	20.00	7.317	5.02317	7.19918	0.0
7.6611	85.0924	1.28	0.08	-30.00	20.00	7.317	5.02066	7.20094	2.0
7.6811	85.0924	1.28	0.08	-30.00	20.00	7.317	5.01815	7.20269	4.0
7.7011	85.0924	1.28	0.08	-30.00	20.00	7.317	5.01563	7.20444	2.0
7.7211	85.0924	1.28	0.08	-30.00	20.00	7.317	5.01312	7.20619	0.0
7.7411	85.0924	1.28	0.08	-30.00	20.00	7.317	5.01060	7.20794	4.0
7.7611	85.0924	1.28	0.08	-30.00	20.00	7.317	5.00808	7.20969	2.0
7.7811	85.0924	1.28	0.08	-30.00	20.00	7.317	5.00557	7.21144	2.0
7.8011	85.0924	1.28	0.08	-30.00	20.00	7.317	5.00305	7.21318	0.0
7.8211	85.0924	1.28	0.08	-30.00	20.00	7.317	5.00053	7.21493	0.0
7.8411	85.0924	1.28	0.08	-30.00	20.00	7.317	4.99801	7.21668	0.0
7.8611	85.0924	1.28	0.08	-30.00	20.00	7.317	4.99549	7.21842	0.0
7.8811	85.0924	1.28	0.08	-30.00	20.00	7.317	4.99297	7.22016	2.0
7.9011	85.0924	1.28	0.08	-30.00	20.00	7.317	4.99045	7.22191	0.0
7.9211	85.0924	1.28	0.08	-30.00	20.00	7.317	4.98793	7.22365	2.0
7.9411	85.0924	1.28	0.08	-30.00	20.00	7.317	4.98541	7.22539	2.0
7.9611	85.0924	1.28	0.08	-30.00	20.00	7.317	4.98289	7.22713	0.0
7.9811	85.0924	1.28	0.08	-30.00	20.00	7.317	4.98036	7.22887	4.0
8.0011	85.0924	1.28	0.08	-30.00	20.00	7.317	4.97784	7.23060	4.0
8.0211	85.0924	1.28	0.08	-30.00	20.00	7.317	4.97532	7.23234	2.0
8.0411	85.0924	1.28	0.08	-30.00	20.00	7.317	4.97279	7.23408	0.0
8.0611	85.0924	1.28	0.08	-30.00	20.00	7.317	4.97027	7.23581	2.0
8.0811	85.0924	1.28	0.08	-30.00	20.00	7.317	4.96774	7.23755	2.0
8.1011	85.0924	1.28	0.08	-30.00	20.00	7.317	4.96521	7.23928	4.0
8.1211	85.0924	1.28	0.08	-30.00	20.00	7.317	4.96269	7.24101	2.0
8.1411	85.0924	1.28	0.08	-30.00	20.00	7.317	4.96016	7.24275	2.0
8.1611	85.0924	1.28	0.08	-30.00	20.00	7.317	4.95763	7.24448	0.0

6.1711	85.1124	1.28	0.08	-30.00	20.00	7.317	5.20843	7.06839	2.0
6.1911	85.1124	1.28	0.08	-30.00	20.00	7.317	5.20596	7.07021	0.0
6.2111	85.1124	1.28	0.08	-30.00	20.00	7.317	5.20349	7.07202	2.0
6.2311	85.1124	1.28	0.08	-30.00	20.00	7.317	5.20102	7.07384	0.0
6.2511	85.1124	1.28	0.08	-30.00	20.00	7.317	5.19855	7.07565	2.0
6.2711	85.1124	1.28	0.08	-30.00	20.00	7.317	5.19608	7.07747	2.0
6.2911	85.1124	1.28	0.08	-30.00	20.00	7.317	5.19361	7.07928	0.0
6.3111	85.1124	1.28	0.08	-30.00	20.00	7.317	5.19114	7.08109	0.0
6.3311	85.1124	1.28	0.08	-30.00	20.00	7.317	5.18867	7.08291	2.0
6.3511	85.1124	1.28	0.08	-30.00	20.00	7.317	5.18620	7.08472	2.0
6.3711	85.1124	1.28	0.08	-30.00	20.00	7.317	5.18372	7.08653	4.0
6.3911	85.1124	1.28	0.08	-30.00	20.00	7.317	5.18125	7.08834	2.0
6.4111	85.1124	1.28	0.08	-30.00	20.00	7.317	5.17878	7.09014	0.0
6.4311	85.1124	1.28	0.08	-30.00	20.00	7.317	5.17630	7.09195	4.0
6.4511	85.1124	1.28	0.08	-30.00	20.00	7.317	5.17382	7.09376	0.0
6.4711	85.1124	1.28	0.08	-30.00	20.00	7.317	5.17135	7.09556	0.0
6.4911	85.1124	1.28	0.08	-30.00	20.00	7.317	5.16887	7.09737	2.0
6.5111	85.1124	1.28	0.08	-30.00	20.00	7.317	5.16639	7.09917	0.0
6.5311	85.1124	1.28	0.08	-30.00	20.00	7.317	5.16391	7.10097	0.0
6.5511	85.1124	1.28	0.08	-30.00	20.00	7.317	5.16144	7.10278	4.0
6.5711	85.1124	1.28	0.08	-30.00	20.00	7.317	5.15896	7.10458	0.0
6.5911	85.1124	1.28	0.08	-30.00	20.00	7.317	5.15648	7.10638	0.0
6.6111	85.1124	1.28	0.08	-30.00	20.00	7.317	5.15399	7.10818	2.0
6.6311	85.1124	1.28	0.08	-30.00	20.00	7.317	5.15151	7.10998	0.0
6.6511	85.1124	1.28	0.08	-30.00	20.00	7.317	5.14903	7.11177	0.0
6.6711	85.1124	1.28	0.08	-30.00	20.00	7.317	5.14655	7.11357	4.0
6.6911	85.1124	1.28	0.08	-30.00	20.00	7.317	5.14406	7.11537	4.0
6.7111	85.1124	1.28	0.08	-30.00	20.00	7.317	5.14158	7.11716	2.0
6.7311	85.1124	1.28	0.08	-30.00	20.00	7.317	5.13910	7.11896	2.0
6.7511	85.1124	1.28	0.08	-30.00	20.00	7.317	5.13661	7.12075	0.0
6.7711	85.1124	1.28	0.08	-30.00	20.00	7.317	5.13412	7.12254	0.0
6.7911	85.1124	1.28	0.08	-30.00	20.00	7.317	5.13164	7.12433	2.0
6.8111	85.1124	1.28	0.08	-30.00	20.00	7.317	5.12915	7.12613	0.0
6.8311	85.1124	1.28	0.08	-30.00	20.00	7.317	5.12666	7.12792	0.0
6.8511	85.1124	1.28	0.08	-30.00	20.00	7.317	5.12417	7.12970	0.0
6.8711	85.1124	1.28	0.08	-30.00	20.00	7.317	5.12169	7.13149	0.0
6.8911	85.1124	1.28	0.08	-30.00	20.00	7.317	5.11920	7.13328	2.0
6.9111	85.1124	1.28	0.08	-30.00	20.00	7.317	5.11671	7.13507	0.0
6.9311	85.1124	1.28	0.08	-30.00	20.00	7.317	5.11421	7.13685	0.0
6.9511	85.1124	1.28	0.08	-30.00	20.00	7.317	5.11172	7.13864	0.0
6.9711	85.1124	1.28	0.08	-30.00	20.00	7.317	5.10923	7.14042	2.0
6.9911	85.1124	1.28	0.08	-30.00	20.00	7.317	5.10674	7.14220	2.0
7.0111	85.1124	1.28	0.08	-30.00	20.00	7.317	5.10424	7.14399	0.0
7.0311	85.1124	1.28	0.08	-30.00	20.00	7.317	5.10175	7.14577	2.0
7.0511	85.1124	1.28	0.08	-30.00	20.00	7.317	5.09926	7.14755	0.0
7.0711	85.1124	1.28	0.08	-30.00	20.00	7.317	5.09676	7.14933	4.0
7.0911	85.1124	1.28	0.08	-30.00	20.00	7.317	5.09426	7.15111	0.0
7.1111	85.1124	1.28	0.08	-30.00	20.00	7.317	5.09177	7.15288	0.0
7.1311	85.1124	1.28	0.08	-30.00	20.00	7.317	5.08927	7.15466	0.0
7.1511	85.1124	1.28	0.08	-30.00	20.00	7.317	5.08677	7.15644	4.0
7.1711	85.1124	1.28	0.08	-30.00	20.00	7.317	5.08428	7.15821	4.0
7.1911	85.1124	1.28	0.08	-30.00	20.00	7.317	5.08178	7.15999	0.0
7.2111	85.1124	1.28	0.08	-30.00	20.00	7.317	5.07928	7.16176	2.0
7.2311	85.1124	1.28	0.08	-30.00	20.00	7.317	5.07678	7.16353	0.0
7.2511	85.1124	1.28	0.08	-30.00	20.00	7.317	5.07428	7.16530	2.0
7.2711	85.1124	1.28	0.08	-30.00	20.00	7.317	5.07177	7.16707	2.0
7.2911	85.1124	1.28	0.08	-30.00	20.00	7.317	5.06927	7.16884	0.0
7.3111	85.1124	1.28	0.08	-30.00	20.00	7.317	5.06677	7.17061	0.0
7.3311	85.1124	1.28	0.08	-30.00	20.00	7.317	5.06427	7.17238	6.0
7.3511	85.1124	1.28	0.08	-30.00	20.00	7.317	5.06176	7.17415	0.0
7.3711	85.1124	1.28	0.08	-30.00	20.00	7.317	5.05926	7.17592	2.0
7.3911	85.1124	1.28	0.08	-30.00	20.00	7.317	5.05675	7.17768	2.0
7.4111	85.1124	1.28	0.08	-30.00	20.00	7.317	5.05425	7.17945	0.0
7.4311	85.1124	1.28	0.08	-30.00	20.00	7.317	5.05174	7.18121	0.0
7.4511	85.1124	1.28	0.08	-30.00	20.00	7.317	5.04923	7.18297	2.0
7.4711	85.1124	1.28	0.08	-30.00	20.00	7.317	5.04673	7.18473	0.0
7.4911	85.1124	1.28	0.08	-30.00	20.00	7.317	5.04422	7.18650	0.0
7.5111	85.1124	1.28	0.08	-30.00	20.00	7.317	5.04171	7.18826	4.0
7.5311	85.1124	1.28	0.08	-30.00	20.00	7.317	5.03920	7.19002	0.0
7.5511	85.1124	1.28	0.08	-30.00	20.00	7.317	5.03669	7.19177	2.0
7.5711	85.1124	1.28	0.08	-30.00	20.00	7.317	5.03418	7.19353	2.0
7.5911	85.1124	1.28	0.08	-30.00	20.00	7.317	5.03167	7.19529	0.0
7.6111	85.1124	1.28	0.08	-30.00	20.00	7.317	5.02915	7.19704	6.0
7.6311	85.1124	1.28	0.08	-30.00	20.00	7.317	5.02664	7.19880	2.0
7.6511	85.1124	1.28	0.08	-30.00	20.00	7.317	5.02413	7.20055	2.0
7.6711	85.1124	1.28	0.08	-30.00	20.00	7.317	5.02162	7.20231	0.0
7.6911	85.1124	1.28	0.08	-30.00	20.00	7.317	5.01910	7.20406	4.0
7.7111	85.1124	1.28	0.08	-30.00	20.00	7.317	5.01659	7.20581	0.0
7.7311	85.1124	1.28	0.08	-30.00	20.00	7.317	5.01407	7.20756	0.0
7.7511	85.1124	1.28	0.08	-30.00	20.00	7.317	5.01155	7.20931	2.0
7.7711	85.1124	1.28	0.08	-30.00	20.00	7.317	5.00904	7.21106	0.0
7.7911	85.1124	1.28	0.08	-30.00	20.00	7.317	5.00652	7.21281	2.0
7.8111	85.1124	1.28	0.08	-30.00	20.00	7.317	5.00400	7.21456	0.0
7.8311	85.1124	1.28	0.08	-30.00	20.00	7.317	5.00148	7.21630	0.0
7.8511	85.1124	1.28	0.08	-30.00	20.00	7.317	4.99896	7.21805	0.0
7.8711	85.1124	1.28	0.08	-30.00	20.00	7.317	4.99644	7.21979	2.0
7.8911	85.1124	1.28	0.08	-30.00	20.00	7.317	4.99392	7.22154	4.0
7.9111	85.1124	1.28	0.08	-30.00	20.00	7.317	4.99140	7.22328	4.0
7.9311	85.1124	1.28	0.08	-30.00	20.00	7.317	4.98888	7.22502	0.0
7.9511	85.1124	1.28	0.08	-30.00	20.00	7.317	4.98636	7.22676	2.0
7.9711	85.1124	1.28	0.08	-30.00	20.00	7.317	4.98384	7.22850	0.0
7.9911	85.1124	1.28	0.08	-30.00	20.00	7.317	4.98131	7.23024	2.0
8.0111	85.1124	1.28	0.08	-30.00	20.00	7.317	4.97879	7.23198	2.0
8.0311	85.1124	1.28	0.08	-30.00	20.00	7.317	4.97626	7.23372	2.0
8.0511	85.1124	1.28	0.08	-30.00	20.00	7.317	4.97374	7.23545	2.0
8.0711	85.1124	1.28	0.08	-30.00	20.00	7.317	4.97121	7.23719	4.0
8.0911	85.1124	1.28	0.08	-30.00	20.00	7.317	4.96868	7.23892	2.0
8.1111	85.1124	1.28	0.08	-30.00	20.00	7.317	4.96616	7.24066	2.0
8.1311	85.1124	1.28	0.08	-30.00	20.00	7.317	4.96363	7.24239	2.0
8.1511	85.1124	1.28	0.08	-30.00	20.00	7.317	4.96110	7.24412	2.0
8.1711	85.1124	1.28	0.08	-30.00	20.00	7.317	4.95857	7.24585	0.0

6.1811	85.1324	1.28	0.08	-30.00	20.00	7.317	5.20942	7.06973	2.0
6.2011	85.1324	1.28	0.08	-30.00	20.00	7.317	5.20695	7.07155	0.0
6.2211	85.1324	1.28	0.08	-30.00	20.00	7.317	5.20448	7.07337	2.0
6.2411	85.1324	1.28	0.08	-30.00	20.00	7.317	5.20201	7.07518	2.0
6.2611	85.1324	1.28	0.08	-30.00	20.00	7.317	5.19954	7.07700	0.0
6.2811	85.1324	1.28	0.08	-30.00	20.00	7.317	5.19707	7.07881	0.0
6.3011	85.1324	1.28	0.08	-30.00	20.00	7.317	5.19460	7.08063	2.0
6.3211	85.1324	1.28	0.08	-30.00	20.00	7.317	5.19213	7.08244	0.0
6.3411	85.1324	1.28	0.08	-30.00	20.00	7.317	5.18966	7.08425	0.0
6.3611	85.1324	1.28	0.08	-30.00	20.00	7.317	5.18718	7.08606	2.0
6.3811	85.1324	1.28	0.08	-30.00	20.00	7.317	5.18471	7.08787	0.0
6.4011	85.1324	1.28	0.08	-30.00	20.00	7.317	5.18223	7.08968	2.0
6.4211	85.1324	1.28	0.08	-30.00	20.00	7.317	5.17976	7.09149	0.0
6.4411	85.1324	1.28	0.08	-30.00	20.00	7.317	5.17728	7.09330	0.0
6.4611	85.1324	1.28	0.08	-30.00	20.00	7.317	5.17481	7.09511	0.0
6.4811	85.1324	1.28	0.08	-30.00	20.00	7.317	5.17233	7.09691	0.0
6.5011	85.1324	1.28	0.08	-30.00	20.00	7.317	5.16985	7.09872	0.0
6.5211	85.1324	1.28	0.08	-30.00	20.00	7.317	5.16737	7.10052	0.0
6.5411	85.1324	1.28	0.08	-30.00	20.00	7.317	5.16490	7.10232	0.0
6.5611	85.1324	1.28	0.08	-30.00	20.00	7.317	5.16242	7.10413	0.0
6.5811	85.1324	1.28	0.08	-30.00	20.00	7.317	5.15994	7.10593	2.0
6.6011	85.1324	1.28	0.08	-30.00	20.00	7.317	5.15746	7.10773	0.0
6.6211	85.1324	1.28	0.08	-30.00	20.00	7.317	5.15497	7.10953	0.0
6.6411	85.1324	1.28	0.08	-30.00	20.00	7.317	5.15249	7.11133	2.0
6.6611	85.1324	1.28	0.08	-30.00	20.00	7.317	5.15001	7.11313	2.0
6.6811	85.1324	1.28	0.08	-30.00	20.00	7.317	5.14753	7.11492	0.0
6.7011	85.1324	1.28	0.08	-30.00	20.00	7.317	5.14504	7.11672	2.0
6.7211	85.1324	1.28	0.08	-30.00	20.00	7.317	5.14256	7.11851	0.0
6.7411	85.1324	1.28	0.08	-30.00	20.00	7.317	5.14007	7.12031	2.0
6.7611	85.1324	1.28	0.08	-30.00	20.00	7.317	5.13759	7.12210	0.0
6.7811	85.1324	1.28	0.08	-30.00	20.00	7.317	5.13510	7.12390	0.0
6.8011	85.1324	1.28	0.08	-30.00	20.00	7.317	5.13261	7.12569	2.0
6.8211	85.1324	1.28	0.08	-30.00	20.00	7.317	5.13013	7.12748	2.0
6.8411	85.1324	1.28	0.08	-30.00	20.00	7.317	5.12764	7.12927	0.0
6.8611	85.1324	1.28	0.08	-30.00	20.00	7.317	5.12515	7.13106	2.0
6.8811	85.1324	1.28	0.08	-30.00	20.00	7.317	5.12266	7.13285	0.0
6.9011	85.1324	1.28	0.08	-30.00	20.00	7.317	5.12017	7.13464	0.0
6.9211	85.1324	1.28	0.08	-30.00	20.00	7.317	5.11768	7.13642	2.0
6.9411	85.1324	1.28	0.08	-30.00	20.00	7.317	5.11519	7.13821	0.0
6.9611	85.1324	1.28	0.08	-30.00	20.00	7.317	5.11269	7.13999	0.0
6.9811	85.1324	1.28	0.08	-30.00	20.00	7.317	5.11020	7.14178	0.0
7.0011	85.1324	1.28	0.08	-30.00	20.00	7.317	5.10771	7.14356	2.0
7.0211	85.1324	1.28	0.08	-30.00	20.00	7.317	5.10521	7.14534	0.0
7.0411	85.1324	1.28	0.08	-30.00	20.00	7.317	5.10272	7.14713	0.0
7.0611	85.1324	1.28	0.08	-30.00	20.00	7.317	5.10023	7.14891	0.0
7.0811	85.1324	1.28	0.08	-30.00	20.00	7.317	5.09773	7.15069	2.0
7.1011	85.1324	1.28	0.08	-30.00	20.00	7.317	5.09523	7.15246	2.0
7.1211	85.1324	1.28	0.08	-30.00	20.00	7.317	5.09274	7.15424	2.0
7.1411	85.1324	1.28	0.08	-30.00	20.00	7.317	5.09024	7.15602	4.0
7.1611	85.1324	1.28	0.08	-30.00	20.00	7.317	5.08774	7.15780	0.0
7.1811	85.1324	1.28	0.08	-30.00	20.00	7.317	5.08524	7.15957	0.0
7.2011	85.1324	1.28	0.08	-30.00	20.00	7.317	5.08274	7.16135	6.0
7.2211	85.1324	1.28	0.08	-30.00	20.00	7.317	5.08024	7.16312	2.0
7.2411	85.1324	1.28	0.08	-30.00	20.00	7.317	5.07774	7.16489	4.0
7.2611	85.1324	1.28	0.08	-30.00	20.00	7.317	5.07524	7.16667	0.0
7.2811	85.1324	1.28	0.08	-30.00	20.00	7.317	5.07274	7.16844	2.0
7.3011	85.1324	1.28	0.08	-30.00	20.00	7.317	5.07024	7.17021	0.0
7.3211	85.1324	1.28	0.08	-30.00	20.00	7.317	5.06773	7.17198	6.0
7.3411	85.1324	1.28	0.08	-30.00	20.00	7.317	5.06523	7.17374	2.0
7.3611	85.1324	1.28	0.08	-30.00	20.00	7.317	5.06272	7.17551	0.0
7.3811	85.1324	1.28	0.08	-30.00	20.00	7.317	5.06022	7.17728	0.0
7.4011	85.1324	1.28	0.08	-30.00	20.00	7.317	5.05771	7.17905	2.0
7.4211	85.1324	1.28	0.08	-30.00	20.00	7.317	5.05521	7.18081	4.0
7.4411	85.1324	1.28	0.08	-30.00	20.00	7.317	5.05270	7.18257	0.0
7.4611	85.1324	1.28	0.08	-30.00	20.00	7.317	5.05019	7.18434	2.0
7.4811	85.1324	1.28	0.08	-30.00	20.00	7.317	5.04768	7.18610	2.0
7.5011	85.1324	1.28	0.08	-30.00	20.00	7.317	5.04518	7.18786	0.0
7.5211	85.1324	1.28	0.08	-30.00	20.00	7.317	5.04267	7.18962	0.0
7.5411	85.1324	1.28	0.08	-30.00	20.00	7.317	5.04016	7.19138	0.0
7.5611	85.1324	1.28	0.08	-30.00	20.00	7.317	5.03765	7.19314	2.0
7.5811	85.1324	1.28	0.08	-30.00	20.00	7.317	5.03513	7.19490	0.0
7.6011	85.1324	1.28	0.08	-30.00	20.00	7.317	5.03262	7.19666	0.0
7.6211	85.1324	1.28	0.08	-30.00	20.00	7.317	5.03011	7.19841	2.0
7.6411	85.1324	1.28	0.08	-30.00	20.00	7.317	5.02760	7.20017	0.0
7.6611	85.1324	1.28	0.08	-30.00	20.00	7.317	5.02508	7.20192	0.0
7.6811	85.1324	1.28	0.08	-30.00	20.00	7.317	5.02257	7.20368	0.0
7.7011	85.1324	1.28	0.08	-30.00	20.00	7.317	5.02005	7.20543	2.0
7.7211	85.1324	1.28	0.08	-30.00	20.00	7.317	5.01754	7.20718	0.0
7.7411	85.1324	1.28	0.08	-30.00	20.00	7.317	5.01502	7.20893	0.0
7.7611	85.1324	1.28	0.08	-30.00	20.00	7.317	5.01251	7.21068	0.0
7.7811	85.1324	1.28	0.08	-30.00	20.00	7.317	5.00999	7.21243	0.0
7.8011	85.1324	1.28	0.08	-30.00	20.00	7.317	5.00747	7.21418	2.0
7.8211	85.1324	1.28	0.08	-30.00	20.00	7.317	5.00495	7.21593	0.0
7.8411	85.1324	1.28	0.08	-30.00	20.00	7.317	5.00243	7.21767	4.0
7.8611	85.1324	1.28	0.08	-30.00	20.00	7.317	4.99991	7.21942	4.0
7.8811	85.1324	1.28	0.08	-30.00	20.00	7.317	4.99739	7.22116	0.0
7.9011	85.1324	1.28	0.08	-30.00	20.00	7.317	4.99487	7.22291	0.0
7.9211	85.1324	1.28	0.08	-30.00	20.00	7.317	4.99235	7.22465	0.0
7.9411	85.1324	1.28	0.08	-30.00	20.00	7.317	4.98983	7.22639	0.0
7.9611	85.1324	1.28	0.08	-30.00	20.00	7.317	4.98731	7.22813	4.0
7.9811	85.1324	1.28	0.08	-30.00	20.00	7.317	4.98478	7.22988	2.0
8.0011	85.1324	1.28	0.08	-30.00	20.00	7.317	4.98226	7.23161	0.0
8.0211	85.1324	1.28	0.08	-30.00	20.00	7.317	4.97973	7.23335	2.0
8.0411	85.1324	1.28	0.08	-30.00	20.00	7.317	4.97721	7.23509	2.0
8.0611	85.1324	1.28	0.08	-30.00	20.00	7.317	4.97468	7.23683	0.0
8.0811	85.1324	1.28	0.08	-30.00	20.00	7.317	4.97216	7.23856	4.0
8.1011	85.1324	1.28	0.08	-30.00	20.00	7.317	4.96963	7.24030	2.0
8.1211	85.1324	1.28	0.08	-30.00	20.00	7.317	4.96710	7.24203	2.0
8.1411	85.1324	1.28	0.08	-30.00	20.00	7.317	4.96457	7.24377	0.0
8.1611	85.1324	1.28	0.08	-30.00	20.00	7.317	4.96204	7.24550	2.0
8.1811	85.1324	1.28	0.08	-30.00	20.00	7.317	4.95952	7.24723	0.0

6.1911	85.1524	1.28	0.08	-30.00	20.00	7.317	5.21041	7.07108	0.0
6.2111	85.1524	1.28	0.08	-30.00	20.00	7.317	5.20794	7.07289	2.0
6.2311	85.1524	1.28	0.08	-30.00	20.00	7.317	5.20547	7.07471	2.0
6.2511	85.1524	1.28	0.08	-30.00	20.00	7.317	5.20300	7.07653	4.0
6.2711	85.1524	1.28	0.08	-30.00	20.00	7.317	5.20053	7.07834	0.0
6.2911	85.1524	1.28	0.08	-30.00	20.00	7.317	5.19806	7.08016	0.0
6.3111	85.1524	1.28	0.08	-30.00	20.00	7.317	5.19559	7.08197	0.0
6.3311	85.1524	1.28	0.08	-30.00	20.00	7.317	5.19312	7.08379	0.0
6.3511	85.1524	1.28	0.08	-30.00	20.00	7.317	5.19064	7.08560	0.0
6.3711	85.1524	1.28	0.08	-30.00	20.00	7.317	5.18817	7.08741	0.0
6.3911	85.1524	1.28	0.08	-30.00	20.00	7.317	5.18569	7.08922	0.0
6.4111	85.1524	1.28	0.08	-30.00	20.00	7.317	5.18322	7.09103	2.0
6.4311	85.1524	1.28	0.08	-30.00	20.00	7.317	5.18074	7.09284	0.0
6.4511	85.1524	1.28	0.08	-30.00	20.00	7.317	5.17827	7.09465	2.0
6.4711	85.1524	1.28	0.08	-30.00	20.00	7.317	5.17579	7.09645	0.0
6.4911	85.1524	1.28	0.08	-30.00	20.00	7.317	5.17331	7.09826	6.0
6.5111	85.1524	1.28	0.08	-30.00	20.00	7.317	5.17084	7.10007	0.0
6.5311	85.1524	1.28	0.08	-30.00	20.00	7.317	5.16836	7.10187	0.0
6.5511	85.1524	1.28	0.08	-30.00	20.00	7.317	5.16588	7.10367	0.0
6.5711	85.1524	1.28	0.08	-30.00	20.00	7.317	5.16340	7.10548	0.0
6.5911	85.1524	1.28	0.08	-30.00	20.00	7.317	5.16092	7.10728	2.0
6.6111	85.1524	1.28	0.08	-30.00	20.00	7.317	5.15844	7.10908	0.0
6.6311	85.1524	1.28	0.08	-30.00	20.00	7.317	5.15595	7.11088	2.0
6.6511	85.1524	1.28	0.08	-30.00	20.00	7.317	5.15347	7.11268	2.0
6.6711	85.1524	1.28	0.08	-30.00	20.00	7.317	5.15099	7.11448	0.0
6.6911	85.1524	1.28	0.08	-30.00	20.00	7.317	5.14850	7.11627	0.0
6.7111	85.1524	1.28	0.08	-30.00	20.00	7.317	5.14602	7.11807	2.0
6.7311	85.1524	1.28	0.08	-30.00	20.00	7.317	5.14353	7.11987	2.0
6.7511	85.1524	1.28	0.08	-30.00	20.00	7.317	5.14105	7.12166	4.0
6.7711	85.1524	1.28	0.08	-30.00	20.00	7.317	5.13856	7.12346	4.0
6.7911	85.1524	1.28	0.08	-30.00	20.00	7.317	5.13608	7.12525	2.0
6.8111	85.1524	1.28	0.08	-30.00	20.00	7.317	5.13359	7.12704	6.0
6.8311	85.1524	1.28	0.08	-30.00	20.00	7.317	5.13110	7.12883	0.0
6.8511	85.1524	1.28	0.08	-30.00	20.00	7.317	5.12861	7.13062	2.0
6.8711	85.1524	1.28	0.08	-30.00	20.00	7.317	5.12612	7.13241	6.0
6.8911	85.1524	1.28	0.08	-30.00	20.00	7.317	5.12363	7.13420	2.0
6.9111	85.1524	1.28	0.08	-30.00	20.00	7.317	5.12114	7.13599	0.0
6.9311	85.1524	1.28	0.08	-30.00	20.00	7.317	5.11865	7.13778	0.0
6.9511	85.1524	1.28	0.08	-30.00	20.00	7.317	5.11616	7.13956	0.0
6.9711	85.1524	1.28	0.08	-30.00	20.00	7.317	5.11367	7.14135	6.0
6.9911	85.1524	1.28	0.08	-30.00	20.00	7.317	5.11117	7.14313	2.0
7.0111	85.1524	1.28	0.08	-30.00	20.00	7.317	5.10868	7.14492	0.0
7.0311	85.1524	1.28	0.08	-30.00	20.00	7.317	5.10618	7.14670	0.0
7.0511	85.1524	1.28	0.08	-30.00	20.00	7.317	5.10369	7.14848	4.0
7.0711	85.1524	1.28	0.08	-30.00	20.00	7.317	5.10119	7.15026	2.0
7.0911	85.1524	1.28	0.08	-30.00	20.00	7.317	5.09870	7.15204	0.0
7.1111	85.1524	1.28	0.08	-30.00	20.00	7.317	5.09620	7.15382	0.0
7.1311	85.1524	1.28	0.08	-30.00	20.00	7.317	5.09370	7.15560	0.0
7.1511	85.1524	1.28	0.08	-30.00	20.00	7.317	5.09121	7.15738	2.0
7.1711	85.1524	1.28	0.08	-30.00	20.00	7.317	5.08871	7.15916	2.0
7.1911	85.1524	1.28	0.08	-30.00	20.00	7.317	5.08621	7.16093	0.0
7.2111	85.1524	1.28	0.08	-30.00	20.00	7.317	5.08371	7.16271	2.0
7.2311	85.1524	1.28	0.08	-30.00	20.00	7.317	5.08121	7.16448	0.0
7.2511	85.1524	1.28	0.08	-30.00	20.00	7.317	5.07871	7.16625	0.0
7.2711	85.1524	1.28	0.08	-30.00	20.00	7.317	5.07620	7.16803	0.0
7.2911	85.1524	1.28	0.08	-30.00	20.00	7.317	5.07370	7.16980	0.0
7.3111	85.1524	1.28	0.08	-30.00	20.00	7.317	5.07120	7.17157	0.0
7.3311	85.1524	1.28	0.08	-30.00	20.00	7.317	5.06870	7.17334	2.0
7.3511	85.1524	1.28	0.08	-30.00	20.00	7.317	5.06619	7.17511	2.0
7.3711	85.1524	1.28	0.08	-30.00	20.00	7.317	5.06369	7.17688	2.0
7.3911	85.1524	1.28	0.08	-30.00	20.00	7.317	5.06118	7.17864	4.0
7.4111	85.1524	1.28	0.08	-30.00	20.00	7.317	5.05867	7.18041	2.0
7.4311	85.1524	1.28	0.08	-30.00	20.00	7.317	5.05617	7.18217	0.0
7.4511	85.1524	1.28	0.08	-30.00	20.00	7.317	5.05366	7.18394	2.0
7.4711	85.1524	1.28	0.08	-30.00	20.00	7.317	5.05115	7.18570	2.0
7.4911	85.1524	1.28	0.08	-30.00	20.00	7.317	5.04864	7.18747	2.0
7.5111	85.1524	1.28	0.08	-30.00	20.00	7.317	5.04613	7.18923	0.0
7.5311	85.1524	1.28	0.08	-30.00	20.00	7.317	5.04362	7.19099	2.0
7.5511	85.1524	1.28	0.08	-30.00	20.00	7.317	5.04111	7.19275	0.0
7.5711	85.1524	1.28	0.08	-30.00	20.00	7.317	5.03860	7.19451	2.0
7.5911	85.1524	1.28	0.08	-30.00	20.00	7.317	5.03609	7.19627	0.0
7.6111	85.1524	1.28	0.08	-30.00	20.00	7.317	5.03358	7.19802	2.0
7.6311	85.1524	1.28	0.08	-30.00	20.00	7.317	5.03107	7.19978	6.0
7.6511	85.1524	1.28	0.08	-30.00	20.00	7.317	5.02855	7.20154	2.0
7.6711	85.1524	1.28	0.08	-30.00	20.00	7.317	5.02604	7.20329	4.0
7.6911	85.1524	1.28	0.08	-30.00	20.00	7.317	5.02352	7.20504	2.0
7.7111	85.1524	1.28	0.08	-30.00	20.00	7.317	5.02101	7.20680	0.0
7.7311	85.1524	1.28	0.08	-30.00	20.00	7.317	5.01849	7.20855	0.0
7.7511	85.1524	1.28	0.08	-30.00	20.00	7.317	5.01598	7.21030	0.0
7.7711	85.1524	1.28	0.08	-30.00	20.00	7.317	5.01346	7.21205	2.0
7.7911	85.1524	1.28	0.08	-30.00	20.00	7.317	5.01094	7.21380	2.0
7.8111	85.1524	1.28	0.08	-30.00	20.00	7.317	5.00842	7.21555	0.0
7.8311	85.1524	1.28	0.08	-30.00	20.00	7.317	5.00590	7.21730	0.0
7.8511	85.1524	1.28	0.08	-30.00	20.00	7.317	5.00338	7.21905	4.0
7.8711	85.1524	1.28	0.08	-30.00	20.00	7.317	5.00086	7.22079	2.0
7.8911	85.1524	1.28	0.08	-30.00	20.00	7.317	4.99834	7.22254	2.0
7.9111	85.1524	1.28	0.08	-30.00	20.00	7.317	4.99582	7.22428	0.0
7.9311	85.1524	1.28	0.08	-30.00	20.00	7.317	4.99330	7.22602	4.0
7.9511	85.1524	1.28	0.08	-30.00	20.00	7.317	4.99078	7.22777	4.0
7.9711	85.1524	1.28	0.08	-30.00	20.00	7.317	4.98825	7.22951	2.0
7.9911	85.1524	1.28	0.08	-30.00	20.00	7.317	4.98573	7.23125	0.0
8.0111	85.1524	1.28	0.08	-30.00	20.00	7.317	4.98321	7.23299	4.0
8.0311	85.1524	1.28	0.08	-30.00	20.00	7.317	4.98068	7.23473	0.0
8.0511	85.1524	1.28	0.08	-30.00	20.00	7.317	4.97815	7.23647	0.0
8.0711	85.1524	1.28	0.08	-30.00	20.00	7.317	4.97563	7.23820	2.0
8.0911	85.1524	1.28	0.08	-30.00	20.00	7.317	4.97310	7.23994	2.0
8.1111	85.1524	1.28	0.08	-30.00	20.00	7.317	4.97057	7.24168	0.0
8.1311	85.1524	1.28	0.08	-30.00	20.00	7.317	4.96805	7.24341	2.0
8.1511	85.1524	1.28	0.08	-30.00	20.00	7.317	4.96552	7.24514	0.0
8.1711	85.1524	1.28	0.08	-30.00	20.00	7.317	4.96299	7.24688	0.0
8.1911	85.1524	1.28	0.08	-30.00	20.00	7.317	4.96046	7.24861	0.0

6.2011	85.1724	1.28	0.08	-30.00	20.00	7.317	5.21140	7.07242	4.0
6.2211	85.1724	1.28	0.08	-30.00	20.00	7.317	5.20893	7.07424	0.0
6.2411	85.1724	1.28	0.08	-30.00	20.00	7.317	5.20646	7.07606	4.0
6.2611	85.1724	1.28	0.08	-30.00	20.00	7.317	5.20399	7.07787	0.0
6.2811	85.1724	1.28	0.08	-30.00	20.00	7.317	5.20152	7.07969	0.0
6.3011	85.1724	1.28	0.08	-30.00	20.00	7.317	5.19905	7.08150	0.0
6.3211	85.1724	1.28	0.08	-30.00	20.00	7.317	5.19657	7.08332	0.0
6.3411	85.1724	1.28	0.08	-30.00	20.00	7.317	5.19410	7.08513	0.0
6.3611	85.1724	1.28	0.08	-30.00	20.00	7.317	5.19163	7.08694	2.0
6.3811	85.1724	1.28	0.08	-30.00	20.00	7.317	5.18915	7.08876	0.0
6.4011	85.1724	1.28	0.08	-30.00	20.00	7.317	5.18668	7.09057	2.0
6.4211	85.1724	1.28	0.08	-30.00	20.00	7.317	5.18420	7.09238	0.0
6.4411	85.1724	1.28	0.08	-30.00	20.00	7.317	5.18173	7.09419	2.0
6.4611	85.1724	1.28	0.08	-30.00	20.00	7.317	5.17925	7.09599	0.0
6.4811	85.1724	1.28	0.08	-30.00	20.00	7.317	5.17677	7.09780	0.0
6.5011	85.1724	1.28	0.08	-30.00	20.00	7.317	5.17430	7.09961	0.0
6.5211	85.1724	1.28	0.08	-30.00	20.00	7.317	5.17182	7.10141	4.0
6.5411	85.1724	1.28	0.08	-30.00	20.00	7.317	5.16934	7.10322	0.0
6.5611	85.1724	1.28	0.08	-30.00	20.00	7.317	5.16686	7.10502	0.0
6.5811	85.1724	1.28	0.08	-30.00	20.00	7.317	5.16438	7.10683	4.0
6.6011	85.1724	1.28	0.08	-30.00	20.00	7.317	5.16190	7.10863	0.0
6.6211	85.1724	1.28	0.08	-30.00	20.00	7.317	5.15942	7.11043	4.0
6.6411	85.1724	1.28	0.08	-30.00	20.00	7.317	5.15693	7.11223	0.0
6.6611	85.1724	1.28	0.08	-30.00	20.00	7.317	5.15445	7.11403	0.0
6.6811	85.1724	1.28	0.08	-30.00	20.00	7.317	5.15197	7.11583	2.0
6.7011	85.1724	1.28	0.08	-30.00	20.00	7.317	5.14948	7.11763	2.0
6.7211	85.1724	1.28	0.08	-30.00	20.00	7.317	5.14700	7.11942	4.0
6.7411	85.1724	1.28	0.08	-30.00	20.00	7.317	5.14451	7.12122	2.0
6.7611	85.1724	1.28	0.08	-30.00	20.00	7.317	5.14203	7.12302	4.0
6.7811	85.1724	1.28	0.08	-30.00	20.00	7.317	5.13954	7.12481	0.0
6.8011	85.1724	1.28	0.08	-30.00	20.00	7.317	5.13705	7.12660	0.0
6.8211	85.1724	1.28	0.08	-30.00	20.00	7.317	5.13456	7.12840	2.0
6.8411	85.1724	1.28	0.08	-30.00	20.00	7.317	5.13208	7.13019	0.0
6.8611	85.1724	1.28	0.08	-30.00	20.00	7.317	5.12959	7.13198	0.0
6.8811	85.1724	1.28	0.08	-30.00	20.00	7.317	5.12710	7.13377	2.0
6.9011	85.1724	1.28	0.08	-30.00	20.00	7.317	5.12461	7.13556	0.0
6.9211	85.1724	1.28	0.08	-30.00	20.00	7.317	5.12211	7.13735	2.0
6.9411	85.1724	1.28	0.08	-30.00	20.00	7.317	5.11962	7.13913	2.0
6.9611	85.1724	1.28	0.08	-30.00	20.00	7.317	5.11713	7.14092	0.0
6.9811	85.1724	1.28	0.08	-30.00	20.00	7.317	5.11464	7.14271	4.0
7.0011	85.1724	1.28	0.08	-30.00	20.00	7.317	5.11214	7.14449	2.0
7.0211	85.1724	1.28	0.08	-30.00	20.00	7.317	5.10965	7.14628	0.0
7.0411	85.1724	1.28	0.08	-30.00	20.00	7.317	5.10715	7.14806	0.0
7.0611	85.1724	1.28	0.08	-30.00	20.00	7.317	5.10466	7.14984	0.0
7.0811	85.1724	1.28	0.08	-30.00	20.00	7.317	5.10216	7.15162	0.0
7.1011	85.1724	1.28	0.08	-30.00	20.00	7.317	5.09967	7.15340	0.0
7.1211	85.1724	1.28	0.08	-30.00	20.00	7.317	5.09717	7.15518	2.0
7.1411	85.1724	1.28	0.08	-30.00	20.00	7.317	5.09467	7.15696	2.0
7.1611	85.1724	1.28	0.08	-30.00	20.00	7.317	5.09217	7.15874	0.0
7.1811	85.1724	1.28	0.08	-30.00	20.00	7.317	5.08967	7.16052	0.0
7.2011	85.1724	1.28	0.08	-30.00	20.00	7.317	5.08717	7.16229	2.0
7.2211	85.1724	1.28	0.08	-30.00	20.00	7.317	5.08467	7.16407	4.0
7.2411	85.1724	1.28	0.08	-30.00	20.00	7.317	5.08217	7.16584	4.0
7.2611	85.1724	1.28	0.08	-30.00	20.00	7.317	5.07967	7.16762	0.0
7.2811	85.1724	1.28	0.08	-30.00	20.00	7.317	5.07717	7.16939	0.0
7.3011	85.1724	1.28	0.08	-30.00	20.00	7.317	5.07467	7.17116	2.0
7.3211	85.1724	1.28	0.08	-30.00	20.00	7.317	5.07216	7.17293	0.0
7.3411	85.1724	1.28	0.08	-30.00	20.00	7.317	5.06966	7.17470	2.0
7.3611	85.1724	1.28	0.08	-30.00	20.00	7.317	5.06715	7.17647	2.0
7.3811	85.1724	1.28	0.08	-30.00	20.00	7.317	5.06465	7.17824	0.0
7.4011	85.1724	1.28	0.08	-30.00	20.00	7.317	5.06214	7.18001	2.0
7.4211	85.1724	1.28	0.08	-30.00	20.00	7.317	5.05964	7.18177	0.0
7.4411	85.1724	1.28	0.08	-30.00	20.00	7.317	5.05713	7.18354	2.0
7.4611	85.1724	1.28	0.08	-30.00	20.00	7.317	5.05462	7.18530	0.0
7.4811	85.1724	1.28	0.08	-30.00	20.00	7.317	5.05211	7.18707	4.0
7.5011	85.1724	1.28	0.08	-30.00	20.00	7.317	5.04960	7.18883	2.0
7.5211	85.1724	1.28	0.08	-30.00	20.00	7.317	5.04709	7.19059	2.0
7.5411	85.1724	1.28	0.08	-30.00	20.00	7.317	5.04458	7.19235	0.0
7.5611	85.1724	1.28	0.08	-30.00	20.00	7.317	5.04207	7.19411	8.0
7.5811	85.1724	1.28	0.08	-30.00	20.00	7.317	5.03956	7.19587	2.0
7.6011	85.1724	1.28	0.08	-30.00	20.00	7.317	5.03705	7.19763	2.0
7.6211	85.1724	1.28	0.08	-30.00	20.00	7.317	5.03454	7.19939	0.0
7.6411	85.1724	1.28	0.08	-30.00	20.00	7.317	5.03202	7.20115	4.0
7.6611	85.1724	1.28	0.08	-30.00	20.00	7.317	5.02951	7.20290	0.0
7.6811	85.1724	1.28	0.08	-30.00	20.00	7.317	5.02699	7.20466	2.0
7.7011	85.1724	1.28	0.08	-30.00	20.00	7.317	5.02448	7.20641	4.0
7.7211	85.1724	1.28	0.08	-30.00	20.00	7.317	5.02196	7.20817	2.0
7.7411	85.1724	1.28	0.08	-30.00	20.00	7.317	5.01945	7.20992	2.0
7.7611	85.1724	1.28	0.08	-30.00	20.00	7.317	5.01693	7.21167	0.0
7.7811	85.1724	1.28	0.08	-30.00	20.00	7.317	5.01441	7.21342	0.0
7.8011	85.1724	1.28	0.08	-30.00	20.00	7.317	5.01189	7.21517	4.0
7.8211	85.1724	1.28	0.08	-30.00	20.00	7.317	5.00937	7.21692	0.0
7.8411	85.1724	1.28	0.08	-30.00	20.00	7.317	5.00685	7.21867	4.0
7.8611	85.1724	1.28	0.08	-30.00	20.00	7.317	5.00433	7.22042	0.0
7.8811	85.1724	1.28	0.08	-30.00	20.00	7.317	5.00181	7.22216	0.0
7.9011	85.1724	1.28	0.08	-30.00	20.00	7.317	4.99929	7.22391	0.0
7.9211	85.1724	1.28	0.08	-30.00	20.00	7.317	4.99677	7.22565	0.0
7.9411	85.1724	1.28	0.08	-30.00	20.00	7.317	4.99425	7.22740	2.0
7.9611	85.1724	1.28	0.08	-30.00	20.00	7.317	4.99172	7.22914	0.0
7.9811	85.1724	1.28	0.08	-30.00	20.00	7.317	4.98920	7.23088	0.0
8.0011	85.1724	1.28	0.08	-30.00	20.00	7.317	4.98668	7.23262	2.0
8.0211	85.1724	1.28	0.08	-30.00	20.00	7.317	4.98415	7.23436	0.0
8.0411	85.1724	1.28	0.08	-30.00	20.00	7.317	4.98163	7.23610	0.0
8.0611	85.1724	1.28	0.08	-30.00	20.00	7.317	4.97910	7.23784	0.0
8.0811	85.1724	1.28	0.08	-30.00	20.00	7.317	4.97657	7.23958	0.0
8.1011	85.1724	1.28	0.08	-30.00	20.00	7.317	4.97405	7.24132	0.0
8.1211	85.1724	1.28	0.08	-30.00	20.00	7.317	4.97152	7.24305	2.0
8.1411	85.1724	1.28	0.08	-30.00	20.00	7.317	4.96899	7.24479	0.0
8.1611	85.1724	1.28	0.08	-30.00	20.00	7.317	4.96646	7.24652	2.0
8.1811	85.1724	1.28	0.08	-30.00	20.00	7.317	4.96393	7.24825	2.0
8.2011	85.1724	1.28	0.08	-30.00	20.00	7.317	4.96140	7.24999	2.0

6.2111	85.1924	1.28	0.08	-30.00	20.00	7.317	5.21239	7.07376	2.0
6.2311	85.1924	1.28	0.08	-30.00	20.00	7.317	5.20992	7.07558	2.0
6.2511	85.1924	1.28	0.08	-30.00	20.00	7.317	5.20745	7.07740	0.0
6.2711	85.1924	1.28	0.08	-30.00	20.00	7.317	5.20498	7.07922	2.0
6.2911	85.1924	1.28	0.08	-30.00	20.00	7.317	5.20251	7.08103	0.0
6.3111	85.1924	1.28	0.08	-30.00	20.00	7.317	5.20003	7.08285	0.0
6.3311	85.1924	1.28	0.08	-30.00	20.00	7.317	5.19756	7.08466	2.0
6.3511	85.1924	1.28	0.08	-30.00	20.00	7.317	5.19509	7.08648	0.0
6.3711	85.1924	1.28	0.08	-30.00	20.00	7.317	5.19261	7.08829	0.0
6.3911	85.1924	1.28	0.08	-30.00	20.00	7.317	5.19014	7.09010	0.0
6.4111	85.1924	1.28	0.08	-30.00	20.00	7.317	5.18766	7.09191	2.0
6.4311	85.1924	1.28	0.08	-30.00	20.00	7.317	5.18519	7.09372	4.0
6.4511	85.1924	1.28	0.08	-30.00	20.00	7.317	5.18271	7.09553	4.0
6.4711	85.1924	1.28	0.08	-30.00	20.00	7.317	5.18023	7.09734	0.0
[...]
9.9411	88.9724	1.28	0.08	-30.00	20.00	7.317	5.15859	7.49315	2.0
9.9611	88.9724	1.28	0.08	-30.00	20.00	7.317	5.15598	7.49496	2.0
9.9811	88.9724	1.28	0.08	-30.00	20.00	7.317	5.15336	7.49675	2.0
10.0011	88.9724	1.28	0.08	-30.00	20.00	7.317	5.15074	7.49855	4.0
10.0211	88.9724	1.28	0.08	-30.00	20.00	7.317	5.14812	7.50035	0.0
10.0411	88.9724	1.28	0.08	-30.00	20.00	7.317	5.14551	7.50215	2.0
10.0611	88.9724	1.28	0.08	-30.00	20.00	7.317	5.14289	7.50394	0.0
10.0811	88.9724	1.28	0.08	-30.00	20.00	7.317	5.14027	7.50574	0.0
10.1011	88.9724	1.28	0.08	-30.00	20.00	7.317	5.13765	7.50753	4.0

8.1111	88.9924	1.28	0.08	-30.00	20.00	7.317	5.39748	7.32496	0.0
8.1311	88.9924	1.28	0.08	-30.00	20.00	7.317	5.39493	7.32684	0.0
8.1511	88.9924	1.28	0.08	-30.00	20.00	7.317	5.39237	7.32872	0.0
8.1711	88.9924	1.28	0.08	-30.00	20.00	7.317	5.38981	7.33061	0.0
8.1911	88.9924	1.28	0.08	-30.00	20.00	7.317	5.38725	7.33249	0.0
8.2111	88.9924	1.28	0.08	-30.00	20.00	7.317	5.38469	7.33437	0.0
8.2311	88.9924	1.28	0.08	-30.00	20.00	7.317	5.38213	7.33625	2.0
8.2511	88.9924	1.28	0.08	-30.00	20.00	7.317	5.37957	7.33812	2.0
8.2711	88.9924	1.28	0.08	-30.00	20.00	7.317	5.37701	7.34000	0.0
8.2911	88.9924	1.28	0.08	-30.00	20.00	7.317	5.37445	7.34188	0.0
8.3111	88.9924	1.28	0.08	-30.00	20.00	7.317	5.37188	7.34375	4.0
8.3311	88.9924	1.28	0.08	-30.00	20.00	7.317	5.36932	7.34563	2.0
8.3511	88.9924	1.28	0.08	-30.00	20.00	7.317	5.36675	7.34750	0.0
8.3711	88.9924	1.28	0.08	-30.00	20.00	7.317	5.36419	7.34938	2.0
8.3911	88.9924	1.28	0.08	-30.00	20.00	7.317	5.36162	7.35125	2.0
8.4111	88.9924	1.28	0.08	-30.00	20.00	7.317	5.35906	7.35312	0.0
8.4311	88.9924	1.28	0.08	-30.00	20.00	7.317	5.35649	7.35499	2.0
8.4511	88.9924	1.28	0.08	-30.00	20.00	7.317	5.35392	7.35686	2.0
8.4711	88.9924	1.28	0.08	-30.00	20.00	7.317	5.35135	7.35873	2.0
8.4911	88.9924	1.28	0.08	-30.00	20.00	7.317	5.34879	7.36059	4.0
8.5111	88.9924	1.28	0.08	-30.00	20.00	7.317	5.34622	7.36246	2.0
8.5311	88.9924	1.28	0.08	-30.00	20.00	7.317	5.34365	7.36433	0.0
8.5511	88.9924	1.28	0.08	-30.00	20.00	7.317	5.34107	7.36619	4.0
8.5711	88.9924	1.28	0.08	-30.00	20.00	7.317	5.33850	7.36806	2.0
8.5911	88.9924	1.28	0.08	-30.00	20.00	7.317	5.33593	7.36992	2.0
8.6111	88.9924	1.28	0.08	-30.00	20.00	7.317	5.33336	7.37178	0.0
8.6311	88.9924	1.28	0.08	-30.00	20.00	7.317	5.33078	7.37364	0.0
8.6511	88.9924	1.28	0.08	-30.00	20.00	7.317	5.32821	7.37550	0.0
8.6711	88.9924	1.28	0.08	-30.00	20.00	7.317	5.32564	7.37736	4.0
8.6911	88.9924	1.28	0.08	-30.00	20.00	7.317	5.32306	7.37922	0.0
8.7111	88.9924	1.28	0.08	-30.00	20.00	7.317	5.32048	7.38108	2.0
8.7311	88.9924	1.28	0.08	-30.00	20.00	7.317	5.31791	7.38293	2.0
8.7511	88.9924	1.28	0.08	-30.00	20.00	7.317	5.31533	7.38479	2.0
8.7711	88.9924	1.28	0.08	-30.00	20.00	7.317	5.31275	7.38665	2.0
8.7911	88.9924	1.28	0.08	-30.00	20.00	7.317	5.31017	7.38850	0.0
8.8111	88.9924	1.28	0.08	-30.00	20.00	7.317	5.30759	7.39035	2.0
8.8311	88.9924	1.28	0.08	-30.00	20.00	7.317	5.30501	7.39220	2.0
8.8511	88.9924	1.28	0.08	-30.00	20.00	7.317	5.30243	7.39406	0.0
8.8711	88.9924	1.28	0.08	-30.00	20.00	7.317	5.29985	7.39591	0.0
8.8911	88.9924	1.28	0.08	-30.00	20.00	7.317	5.29727	7.39776	0.0
8.9111	88.9924	1.28	0.08	-30.00	20.00	7.317	5.29469	7.39960	0.0
8.9311	88.9924	1.28	0.08	-30.00	20.00	7.317	5.29210	7.40145	0.0
8.9511	88.9924	1.28	0.08	-30.00	20.00	7.317	5.28952	7.40330	0.0
8.9711	88.9924	1.28	0.08	-30.00	20.00	7.317	5.28693	7.40514	0.0
8.9911	88.9924	1.28	0.08	-30.00	20.00	7.317	5.28435	7.40699	2.0
9.0111	88.9924	1.28	0.08	-30.00	20.00	7.317	5.28176	7.40883	2.0
9.0311	88.9924	1.28	0.08	-30.00	20.00	7.317	5.27918	7.41068	2.0
9.0511	88.9924	1.28	0.08	-30.00	20.00	7.317	5.27659	7.41252	2.0
9.0711	88.9924	1.28	0.08	-30.00	20.00	7.317	5.27400	7.41436	8.0
9.0911	88.9924	1.28	0.08	-30.00	20.00	7.317	5.27141	7.41620	0.0
9.1111	88.9924	1.28	0.08	-30.00	20.00	7.317	5.26882	7.41804	0.0
9.1311	88.9924	1.28	0.08	-30.00	20.00	7.317	5.26623	7.41988	0.0
9.1511	88.9924	1.28	0.08	-30.00	20.00	7.317	5.26364	7.42172	4.0
9.1711	88.9924	1.28	0.08	-30.00	20.00	7.317	5.26105	7.42355	0.0
9.1911	88.9924	1.28	0.08	-30.00	20.00	7.317	5.25846	7.42539	0.0
9.2111	88.9924	1.28	0.08	-30.00	20.00	7.317	5.25587	7.42723	0.0
9.2311	88.9924	1.28	0.08	-30.00	20.00	7.317	5.25328	7.42906	4.0
9.2511	88.9924	1.28	0.08	-30.00	20.00	7.317	5.25068	7.43089	2.0
9.2711	88.9924	1.28	0.08	-30.00	20.00	7.317	5.24809	7.43273	0.0
9.2911	88.9924	1.28	0.08	-30.00	20.00	7.317	5.24549	7.43456	2.0
9.3111	88.9924	1.28	0.08	-30.00	20.00	7.317	5.24290	7.43639	2.0
9.3311	88.9924	1.28	0.08	-30.00	20.00	7.317	5.24030	7.43822	4.0
9.3511	88.9924	1.28	0.08	-30.00	20.00	7.317	5.23771	7.44005	2.0
9.3711	88.9924	1.28	0.08	-30.00	20.00	7.317	5.23511	7.44187	4.0
9.3911	88.9924	1.28	0.08	-30.00	20.00	7.317	5.23251	7.44370	0.0
9.4111	88.9924	1.28	0.08	-30.00	20.00	7.317	5.22991	7.44553	4.0
9.4311	88.9924	1.28	0.08	-30.00	20.00	7.317	5.22731	7.44735	2.0
9.4511	88.9924	1.28	0.08	-30.00	20.00	7.317	5.22471	7.44918	2.0
9.4711	88.9924	1.28	0.08	-30.00	20.00	7.317	5.22211	7.45100	2.0
9.4911	88.9924	1.28	0.08	-30.00	20.00	7.317	5.21951	7.45282	0.0
9.5111	88.9924	1.28	0.08	-30.00	20.00	7.317	5.21691	7.45464	4.0
9.5311	88.9924	1.28	0.08	-30.00	20.00	7.317	5.21431	7.45646	0.0
9.5511	88.9924	1.28	0.08	-30.00	20.00	7.317	5.21170	7.45828	0.0
9.5711	88.9924	1.28	0.08	-30.00	20.00	7.317	5.20910	7.46010	0.0
9.5911	88.9924	1.28	0.08	-30.00	20.00	7.317	5.20650	7.46192	2.0
9.6111	88.9924	1.28	0.08	-30.00	20.00	7.317	5.20389	7.46374	2.0
9.6311	88.9924	1.28	0.08	-30.00	20.00	7.317	5.20128	7.46555	0.0
9.6511	88.9924	1.28	0.08	-30.00	20.00	7.317	5.19868	7.46737	2.0
9.6711	88.9924	1.28	0.08	-30.00	20.00	7.317	5.19607	7.46918	0.0
9.6911	88.9924	1.28	0.08	-30.00	20.00	7.317	5.19346	7.47100	2.0
9.7111	88.9924	1.28	0.08	-30.00	20.00	7.317	5.19086	7.47281	4.0
9.7311	88.9924	1.28	0.08	-30.00	20.00	7.317	5.18825	7.47462	0.0
9.7511	88.9924	1.28	0.08	-30.00	20.00	7.317	5.18564	7.47643	4.0
9.7711	88.9924	1.28	0.08	-30.00	20.00	7.317	5.18303	7.47824	2.0
9.7911	88.9924	1.28	0.08	-30.00	20.00	7.317	5.18042	7.48005	2.0
9.8111	88.9924	1.28	0.08	-30.00	20.00	7.317	5.17781	7.48186	0.0
9.8311	88.9924	1.28	0.08	-30.00	20.00	7.317	5.17519	7.48366	0.0
9.8511	88.9924	1.28	0.08	-30.00	20.00	7.317	5.17258	7.48547	0.0
9.8711	88.9924	1.28	0.08	-30.00	20.00	7.317	5.16997	7.48727	2.0
9.8911	88.9924	1.28	0.08	-30.00	20.00	7.317	5.16735	7.48908	10.0
9.9111	88.9924	1.28	0.08	-30.00	20.00	7.317	5.16474	7.49088	0.0
9.9311	88.9924	1.28	0.08	-30.00	20.00	7.317	5.16212	7.49268	2.0
9.9511	88.9924	1.28	0.08	-30.00	20.00	7.317	5.15951	7.49449	0.0
9.9711	88.9924	1.28	0.08	-30.00	20.00	7.317	5.15689	7.49629	2.0
9.9911	88.9924	1.28	0.08	-30.00	20.00	7.317	5.15427	7.49809	0.0
10.0111	88.9924	1.28	0.08	-30.00	20.00	7.317	5.15166	7.49989	2.0
10.0311	88.9924	1.28	0.08	-30.00	20.00	7.317	5.14904	7.50168	0.0
10.0511	88.9924	1.28	0.08	-30.00	20.00	7.317	5.14642	7.50348	0.0
10.0711	88.9924	1.28	0.08	-30.00	20.00	7.317	5.14380	7.50528	0.0
10.0911	88.9924	1.28	0.08	-30.00	20.00	7.317	5.14118	7.50707	2.0
10.1111	88.9924	1.28	0.08	-30.00	20.00	7.317	5.13856	7.50887	0.0

8.1211	89.0124	1.28	0.08	-30.00	20.00	7.317	5.39844	7.32626	2.0
8.1411	89.0124	1.28	0.08	-30.00	20.00	7.317	5.39589	7.32814	0.0
8.1611	89.0124	1.28	0.08	-30.00	20.00	7.317	5.39333	7.33003	0.0
8.1811	89.0124	1.28	0.08	-30.00	20.00	7.317	5.39077	7.33191	6.0
8.2011	89.0124	1.28	0.08	-30.00	20.00	7.317	5.38821	7.33379	0.0
8.2211	89.0124	1.28	0.08	-30.00	20.00	7.317	5.38565	7.33567	2.0
8.2411	89.0124	1.28	0.08	-30.00	20.00	7.317	5.38309	7.33755	0.0
8.2611	89.0124	1.28	0.08	-30.00	20.00	7.317	5.38053	7.33943	2.0
8.2811	89.0124	1.28	0.08	-30.00	20.00	7.317	5.37796	7.34131	4.0
8.3011	89.0124	1.28	0.08	-30.00	20.00	7.317	5.37540	7.34318	0.0
8.3211	89.0124	1.28	0.08	-30.00	20.00	7.317	5.37284	7.34506	4.0
8.3411	89.0124	1.28	0.08	-30.00	20.00	7.317	5.37027	7.34693	0.0
8.3611	89.0124	1.28	0.08	-30.00	20.00	7.317	5.36771	7.34881	0.0
8.3811	89.0124	1.28	0.08	-30.00	20.00	7.317	5.36514	7.35068	2.0
8.4011	89.0124	1.28	0.08	-30.00	20.00	7.317	5.36258	7.35255	2.0
8.4211	89.0124	1.28	0.08	-30.00	20.00	7.317	5.36001	7.35442	0.0
8.4411	89.0124	1.28	0.08	-30.00	20.00	7.317	5.35744	7.35629	0.0
8.4611	89.0124	1.28	0.08	-30.00	20.00	7.317	5.35487	7.35816	0.0
8.4811	89.0124	1.28	0.08	-30.00	20.00	7.317	5.35231	7.36003	0.0
8.5011	89.0124	1.28	0.08	-30.00	20.00	7.317	5.34974	7.36190	4.0
8.5211	89.0124	1.28	0.08	-30.00	20.00	7.317	5.34717	7.36377	0.0
8.5411	89.0124	1.28	0.08	-30.00	20.00	7.317	5.34459	7.36563	4.0
8.5611	89.0124	1.28	0.08	-30.00	20.00	7.317	5.34202	7.36750	0.0
8.5811	89.0124	1.28	0.08	-30.00	20.00	7.317	5.33945	7.36936	0.0
8.6011	89.0124	1.28	0.08	-30.00	20.00	7.317	5.33688	7.37123	0.0
8.6211	89.0124	1.28	0.08	-30.00	20.00	7.317	5.33431	7.37309	4.0
8.6411	89.0124	1.28	0.08	-30.00	20.00	7.317	5.33173	7.37495	6.0
8.6611	89.0124	1.28	0.08	-30.00	20.00	7.317	5.32916	7.37681	4.0
8.6811	89.0124	1.28	0.08	-30.00	20.00	7.317	5.32658	7.37867	0.0
8.7011	89.0124	1.28	0.08	-30.00	20.00	7.317	5.32401	7.38053	4.0
8.7211	89.0124	1.28	0.08	-30.00	20.00	7.317	5.32143	7.38239	4.0
8.7411	89.0124	1.28	0.08	-30.00	20.00	7.317	5.31885	7.38425	0.0
8.7611	89.0124	1.28	0.08	-30.00	20.00	7.317	5.31627	7.38610	0.0
8.7811	89.0124	1.28	0.08	-30.00	20.00	7.317	5.31369	7.38796	0.0
8.8011	89.0124	1.28	0.08	-30.00	20.00	7.317	5.31112	7.38981	0.0
8.8211	89.0124	1.28	0.08	-30.00	20.00	7.317	5.30854	7.39166	2.0
8.8411	89.0124	1.28	0.08	-30.00	20.00	7.317	5.30596	7.39352	0.0
8.8611	89.0124	1.28	0.08	-30.00	20.00	7.317	5.30337	7.39537	2.0
8.8811	89.0124	1.28	0.08	-30.00	20.00	7.317	5.30079	7.39722	0.0
8.9011	89.0124	1.28	0.08	-30.00	20.00	7.317	5.29821	7.39907	2.0
8.9211	89.0124	1.28	0.08	-30.00	20.00	7.317	5.29563	7.40092	2.0
8.9411	89.0124	1.28	0.08	-30.00	20.00	7.317	5.29304	7.40277	0.0
8.9611	89.0124	1.28	0.08	-30.00	20.00	7.317	5.29046	7.40461	2.0
8.9811	89.0124	1.28	0.08	-30.00	20.00	7.317	5.28787	7.40646	0.0
9.0011	89.0124	1.28	0.08	-30.00	20.00	7.317	5.28529	7.40831	0.0
9.0211	89.0124	1.28	0.08	-30.00	20.00	7.317	5.28270	7.41015	2.0
9.0411	89.0124	1.28	0.08	-30.00	20.00	7.317	5.28011	7.41199	2.0
9.0611	89.0124	1.28	0.08	-30.00	20.00	7.317	5.27753	7.41384	0.0
9.0811	89.0124	1.28	0.08	-30.00	20.00	7.317	5.27494	7.41568	0.0
9.1011	89.0124	1.28	0.08	-30.00	20.00	7.317	5.27235	7.41752	0.0
9.1211	89.0124	1.28	0.08	-30.00	20.00	7.317	5.26976	7.41936	0.0
9.1411	89.0124	1.28	0.08	-30.00	20.00	7.317	5.26717	7.42120	4.0
9.1611	89.0124	1.28	0.08	-30.00	20.00	7.317	5.26458	7.42304	4.0
9.1811	89.0124	1.28	0.08	-30.00	20.00	7.317	5.26199	7.42487	0.0
9.2011	89.0124	1.28	0.08	-30.00	20.00	7.317	5.25940	7.42671	0.0
9.2211	89.0124	1.28	0.08	-30.00	20.00	7.317	5.25680	7.42854	4.0
9.2411	89.0124	1.28	0.08	-30.00	20.00	7.317	5.25421	7.43038	0.0
9.2611	89.0124	1.28	0.08	-30.00	20.00	7.317	5.25162	7.43221	2.0
9.2811	89.0124	1.28	0.08	-30.00	20.00	7.317	5.24902	7.43405	6.0
9.3011	89.0124	1.28	0.08	-30.00	20.00	7.317	5.24643	7.43588	2.0
9.3211	89.0124	1.28	0.08	-30.00	20.00	7.317	5.24383	7.43771	0.0
9.3411	89.0124	1.28	0.08	-30.00	20.00	7.317	5.24123	7.43954	0.0
9.3611	89.0124	1.28	0.08	-30.00	20.00	7.317	5.23864	7.44137	2.0
9.3811	89.0124	1.28	0.08	-30.00	20.00	7.317	5.23604	7.44320	0.0
9.4011	89.0124	1.28	0.08	-30.00	20.00	7.317	5.23344	7.44502	0.0
9.4211	89.0124	1.28	0.08	-30.00	20.00	7.317	5.23084	7.44685	2.0
9.4411	89.0124	1.28	0.08	-30.00	20.00	7.317	5.22824	7.44867	0.0
9.4611	89.0124	1.28	0.08	-30.00	20.00	7.317	5.22564	7.45050	2.0
9.4811	89.0124	1.28	0.08	-30.00	20.00	7.317	5.22304	7.45232	0.0
9.5011	89.0124	1.28	0.08	-30.00	20.00	7.317	5.22044	7.45415	2.0
9.5211	89.0124	1.28	0.08	-30.00	20.00	7.317	5.21784	7.45597	0.0
9.5411	89.0124	1.28	0.08	-30.00	20.00	7.317	5.21523	7.45779	4.0
9.5611	89.0124	1.28	0.08	-30.00	20.00	7.317	5.21263	7.45961	0.0
9.5811	89.0124	1.28	0.08	-30.00	20.00	7.317	5.21002	7.46143	0.0
9.6011	89.0124	1.28	0.08	-30.00	20.00	7.317	5.20742	7.46325	0.0
9.6211	89.0124	1.28	0.08	-30.00	20.00	7.317	5.20481	7.46506	0.0
9.6411	89.0124	1.28	0.08	-30.00	20.00	7.317	5.20221	7.46688	0.0
9.6611	89.0124	1.28	0.08	-30.00	20.00	7.317	5.19960	7.46869	2.0
9.6811	89.0124	1.28	0.08	-30.00	20.00	7.317	5.19699	7.47051	0.0
9.7011	89.0124	1.28	0.08	-30.00	20.00	7.317	5.19439	7.47232	0.0
9.7211	89.0124	1.28	0.08	-30.00	20.00	7.317	5.19178	7.47414	2.0
9.7411	89.0124	1.28	0.08	-30.00	20.00	7.317	5.18917	7.47595	2.0
9.7611	89.0124	1.28	0.08	-30.00	20.00	7.317	5.18656	7.47776	2.0
9.7811	89.0124	1.28	0.08	-30.00	20.00	7.317	5.18395	7.47957	2.0
9.8011	89.0124	1.28	0.08	-30.00	20.00	7.317	5.18134	7.48138	0.0
9.8211	89.0124	1.28	0.08	-30.00	20.00	7.317	5.17872	7.48319	0.0
9.8411	89.0124	1.28	0.08	-30.00	20.00	7.317	5.17611	7.48499	2.0
9.8611	89.0124	1.28	0.08	-30.00	20.00	7.317	5.17350	7.48680	0.0
9.8811	89.0124	1.28	0.08	-30.00	20.00	7.317	5.17089	7.48860	2.0
9.9011	89.0124	1.28	0.08	-30.00	20.00	7.317	5.16827	7.49041	2.0
9.9211	89.0124	1.28	0.08	-30.00	20.00	7.317	5.16566	7.49221	6.0
9.9411	89.0124	1.28	0.08	-30.00	20.00	7.317	5.16304	7.49402	2.0
9.9611	89.0124	1.28	0.08	-30.00	20.00	7.317	5.16042	7.49582	0.0
9.9811	89.0124	1.28	0.08	-30.00	20.00	7.317	5.15781	7.49762	2.0
10.0011	89.0124	1.28	0.08	-30.00	20.00	7.317	5.15519	7.49942	2.0
10.0211	89.0124	1.28	0.08	-30.00	20.00	7.317	5.15257	7.50122	0.0
10.0411	89.0124	1.28	0.08	-30.00	20.00	7.317	5.14995	7.50302	0.0
10.0611	89.0124	1.28	0.08	-30.00	20.00	7.317	5.14733	7.50481	6.0
10.0811	89.0124	1.28	0.08	-30.00	20.00	7.317	5.14471	7.50661	0.0
10.1011	89.0124	1.28	0.08	-30.00	20.00	7.317	5.14209	7.50840	0.0
10.1211	89.0124	1.28	0.08	-30.00	20.00	7.317	5.13947	7.51020	0.0

8.1311	89.0324	1.28	0.08	-30.00	20.00	7.317	5.39940	7.32756	2.0
8.1511	89.0324	1.28	0.08	-30.00	20.00	7.317	5.39684	7.32944	2.0
8.1711	89.0324	1.28	0.08	-30.00	20.00	7.317	5.39429	7.33133	2.0
8.1911	89.0324	1.28	0.08	-30.00	20.00	7.317	5.39173	7.33321	0.0
8.2111	89.0324	1.28	0.08	-30.00	20.00	7.317	5.38917	7.33509	2.0
8.2311	89.0324	1.28	0.08	-30.00	20.00	7.317	5.38660	7.33697	2.0
8.2511	89.0324	1.28	0.08	-30.00	20.00	7.317	5.38404	7.33885	2.0
8.2711	89.0324	1.28	0.08	-30.00	20.00	7.317	5.38148	7.34073	2.0
8.2911	89.0324	1.28	0.08	-30.00	20.00	7.317	5.37892	7.34261	0.0
8.3111	89.0324	1.28	0.08	-30.00	20.00	7.317	5.37636	7.34449	0.0
8.3311	89.0324	1.28	0.08	-30.00	20.00	7.317	5.37379	7.34636	4.0
8.3511	89.0324	1.28	0.08	-30.00	20.00	7.317	5.37123	7.34824	6.0
8.3711	89.0324	1.28	0.08	-30.00	20.00	7.317	5.36866	7.35011	0.0
8.3911	89.0324	1.28	0.08	-30.00	20.00	7.317	5.36610	7.35199	0.0
8.4111	89.0324	1.28	0.08	-30.00	20.00	7.317	5.36353	7.35386	2.0
8.4311	89.0324	1.28	0.08	-30.00	20.00	7.317	5.36096	7.35573	2.0
8.4511	89.0324	1.28	0.08	-30.00	20.00	7.317	5.35839	7.35760	0.0
8.4711	89.0324	1.28	0.08	-30.00	20.00	7.317	5.35582	7.35947	2.0
8.4911	89.0324	1.28	0.08	-30.00	20.00	7.317	5.35326	7.36134	4.0
8.5111	89.0324	1.28	0.08	-30.00	20.00	7.317	5.35069	7.36321	6.0
8.5311	89.0324	1.28	0.08	-30.00	20.00	7.317	5.34811	7.36508	0.0
8.5511	89.0324	1.28	0.08	-30.00	20.00	7.317	5.34554	7.36694	2.0
8.5711	89.0324	1.28	0.08	-30.00	20.00	7.317	5.34297	7.36881	0.0
8.5911	89.0324	1.28	0.08	-30.00	20.00	7.317	5.34040	7.37067	4.0
8.6111	89.0324	1.28	0.08	-30.00	20.00	7.317	5.33783	7.37254	0.0
8.6311	89.0324	1.28	0.08	-30.00	20.00	7.317	5.33525	7.37440	0.0
8.6511	89.0324	1.28	0.08	-30.00	20.00	7.317	5.33268	7.37626	4.0
8.6711	89.0324	1.28	0.08	-30.00	20.00	7.317	5.33010	7.37812	0.0
8.6911	89.0324	1.28	0.08	-30.00	20.00	7.317	5.32753	7.37998	0.0
8.7111	89.0324	1.28	0.08	-30.00	20.00	7.317	5.32495	7.38184	4.0
8.7311	89.0324	1.28	0.08	-30.00	20.00	7.317	5.32237	7.38370	2.0
8.7511	89.0324	1.28	0.08	-30.00	20.00	7.317	5.31980	7.38556	2.0
8.7711	89.0324	1.28	0.08	-30.00	20.00	7.317	5.31722	7.38741	0.0
8.7911	89.0324	1.28	0.08	-30.00	20.00	7.317	5.31464	7.38927	0.0
8.8111	89.0324	1.28	0.08	-30.00	20.00	7.317	5.31206	7.39112	0.0
8.8311	89.0324	1.28	0.08	-30.00	20.00	7.317	5.30948	7.39298	0.0
8.8511	89.0324	1.28	0.08	-30.00	20.00	7.317	5.30690	7.39483	2.0
8.8711	89.0324	1.28	0.08	-30.00	20.00	7.317	5.30432	7.39668	2.0
8.8911	89.0324	1.28	0.08	-30.00	20.00	7.317	5.30173	7.39853	0.0
8.9111	89.0324	1.28	0.08	-30.00	20.00	7.317	5.29915	7.40038	0.0
8.9311	89.0324	1.28	0.08	-30.00	20.00	7.317	5.29657	7.40223	2.0
8.9511	89.0324	1.28	0.08	-30.00	20.00	7.317	5.29398	7.40408	0.0
8.9711	89.0324	1.28	0.08	-30.00	20.00	7.317	5.29140	7.40593	6.0
8.9911	89.0324	1.28	0.08	-30.00	20.00	7.317	5.28881	7.40778	0.0
9.0111	89.0324	1.28	0.08	-30.00	20.00	7.317	5.28623	7.40962	0.0
9.0311	89.0324	1.28	0.08	-30.00	20.00	7.317	5.28364	7.41147	2.0
9.0511	89.0324	1.28	0.08	-30.00	20.00	7.317	5.28105	7.41331	4.0
9.0711	89.0324	1.28	0.08	-30.00	20.00	7.317	5.27846	7.41515	4.0
9.0911	89.0324	1.28	0.08	-30.00	20.00	7.317	5.27588	7.41699	2.0
9.1111	89.0324	1.28	0.08	-30.00	20.00	7.317	5.27329	7.41884	0.0
9.1311	89.0324	1.28	0.08	-30.00	20.00	7.317	5.27070	7.42068	2.0
9.1511	89.0324	1.28	0.08	-30.00	20.00	7.317	5.26811	7.42252	2.0
9.1711	89.0324	1.28	0.08	-30.00	20.00	7.317	5.26551	7.42435	4.0
9.1911	89.0324	1.28	0.08	-30.00	20.00	7.317	5.26292	7.42619	0.0
9.2111	89.0324	1.28	0.08	-30.00	20.00	7.317	5.26033	7.42803	0.0
9.2311	89.0324	1.28	0.08	-30.00	20.00	7.317	5.25774	7.42986	2.0
9.2511	89.0324	1.28	0.08	-30.00	20.00	7.317	5.25514	7.43170	2.0
9.2711	89.0324	1.28	0.08	-30.00	20.00	7.317	5.25255	7.43353	0.0
9.2911	89.0324	1.28	0.08	-30.00	20.00	7.317	5.24995	7.43537	2.0
9.3111	89.0324	1.28	0.08	-30.00	20.00	7.317	5.24736	7.43720	2.0
9.3311	89.0324	1.28	0.08	-30.00	20.00	7.317	5.24476	7.43903	2.0
9.3511	89.0324	1.28	0.08	-30.00	20.00	7.317	5.24216	7.44086	0.0
9.3711	89.0324	1.28	0.08	-30.00	20.00	7.317	5.23957	7.44269	2.0
9.3911	89.0324	1.28	0.08	-30.00	20.00	7.317	5.23697	7.44452	0.0
9.4111	89.0324	1.28	0.08	-30.00	20.00	7.317	5.23437	7.44634	2.0
9.4311	89.0324	1.28	0.08	-30.00	20.00	7.317	5.23177	7.44817	2.0
9.4511	89.0324	1.28	0.08	-30.00	20.00	7.317	5.22917	7.45000	2.0
9.4711	89.0324	1.28	0.08	-30.00	20.00	7.317	5.22657	7.45182	0.0
9.4911	89.0324	1.28	0.08	-30.00	20.00	7.317	5.22397	7.45365	0.0
9.5111	89.0324	1.28	0.08	-30.00	20.00	7.317	5.22136	7.45547	2.0
9.5311	89.0324	1.28	0.08	-30.00	20.00	7.317	5.21876	7.45729	2.0
9.5511	89.0324	1.28	0.08	-30.00	20.00	7.317	5.21616	7.45911	0.0
9.5711	89.0324	1.28	0.08	-30.00	20.00	7.317	5.21355	7.46093	4.0
9.5911	89.0324	1.28	0.08	-30.00	20.00	7.317	5.21095	7.46275	0.0
9.6111	89.0324	1.28	0.08	-30.00	20.00	7.317	5.20834	7.46457	4.0
9.6311	89.0324	1.28	0.08	-30.00	20.00	7.317	5.20574	7.46639	4.0
9.6511	89.0324	1.28	0.08	-30.00	20.00	7.317	5.20313	7.46821	0.0
9.6711	89.0324	1.28	0.08	-30.00	20.00	7.317	5.20052	7.47002	0.0
9.6911	89.0324	1.28	0.08	-30.00	20.00	7.317	5.19792	7.47184	2.0
9.7111	89.0324	1.28	0.08	-30.00	20.00	7.317	5.19531	7.47365	0.0
9.7311	89.0324	1.28	0.08	-30.00	20.00	7.317	5.19270	7.47546	0.0
9.7511	89.0324	1.28	0.08	-30.00	20.00	7.317	5.19009	7.47727	0.0
9.7711	89.0324	1.28	0.08	-30.00	20.00	7.317	5.18748	7.47909	0.0
9.7911	89.0324	1.28	0.08	-30.00	20.00	7.317	5.18487	7.48090	0.0
9.8111	89.0324	1.28	0.08	-30.00	20.00	7.317	5.18226	7.48271	8.0
9.8311	89.0324	1.28	0.08	-30.00	20.00	7.317	5.17964	7.48451	0.0
9.8511	89.0324	1.28	0.08	-30.00	20.00	7.317	5.17703	7.48632	2.0
9.8711	89.0324	1.28	0.08	-30.00	20.00	7.317	5.17442	7.48813	2.0
9.8911	89.0324	1.28	0.08	-30.00	20.00	7.317	5.17180	7.48993	0.0
9.9111	89.0324	1.28	0.08	-30.00	20.00	7.317	5.16919	7.49174	2.0
9.9311	89.0324	1.28	0.08	-30.00	20.00	7.317	5.16657	7.49354	0.0
9.9511	89.0324	1.28	0.08	-30.00	20.00	7.317	5.16396	7.49535	4.0
9.9711	89.0324	1.28	0.08	-30.00	20.00	7.317	5.16134	7.49715	8.0
9.9911	89.0324	1.28	0.08	-30.00	20.00	7.317	5.15872	7.49895	0.0
10.0111	89.0324	1.28	0.08	-30.00	20.00	7.317	5.15611	7.50075	4.0
10.0311	89.0324	1.28	0.08	-30.00	20.00	7.317	5.15349	7.50255	8.0
10.0511	89.0324	1.28	0.08	-30.00	20.00	7.317	5.15087	7.50435	2.0
10.0711	89.0324	1.28	0.08	-30.00	20.00	7.317	5.14825	7.50615	4.0
10.0911	89.0324	1.28	0.08	-30.00	20.00	7.317	5.14563	7.50794	0.0
10.1111	89.0324	1.28	0.08	-30.00	20.00	7.317	5.14301	7.50974	6.0
10.1311	89.0324	1.28	0.08	-30.00	20.00	7.317	5.14038	7.51153	0.0