File: Data/Omega/2.0deg-2.0deg-rsm-3h10mins_11352-annealed_224_w-scans.dat
# filename: 2.0deg-2.0deg-rsm-3h10mins_11352-annealed_224.dat
# reflection: (004)
# type: rotated into a series of omega scans
# x-axis: Omega_2Theta
#
# Omega	2Theta	Phi  	Chi   	X    	Y    	Z    	q_para	q_perp	Intensity
# [deg]	[deg] 	[deg]	[deg] 	[mm] 	[mm] 	[mm] 	[nm-1]	[nm-1]	[counts/s]
6.5575	85.0512	-1.19	0.12	0.00	17.51	7.290	5.15385	7.10197	0.0
6.5775	85.0512	-1.19	0.12	0.00	17.51	7.290	5.15137	7.10377	0.0
6.5975	85.0512	-1.19	0.12	0.00	17.51	7.290	5.14889	7.10557	0.0
6.6175	85.0512	-1.19	0.12	0.00	17.51	7.290	5.14641	7.10737	2.0
6.6375	85.0512	-1.19	0.12	0.00	17.51	7.290	5.14393	7.10916	0.0
6.6575	85.0512	-1.19	0.12	0.00	17.51	7.290	5.14144	7.11096	4.0
6.6775	85.0512	-1.19	0.12	0.00	17.51	7.290	5.13896	7.11275	0.0
6.6975	85.0512	-1.19	0.12	0.00	17.51	7.290	5.13648	7.11455	0.0
6.7175	85.0512	-1.19	0.12	0.00	17.51	7.290	5.13399	7.11634	2.0
6.7375	85.0512	-1.19	0.12	0.00	17.51	7.290	5.13151	7.11813	0.0
6.7575	85.0512	-1.19	0.12	0.00	17.51	7.290	5.12902	7.11992	0.0
6.7775	85.0512	-1.19	0.12	0.00	17.51	7.290	5.12654	7.12171	0.0
6.7975	85.0512	-1.19	0.12	0.00	17.51	7.290	5.12405	7.12350	4.0
6.8175	85.0512	-1.19	0.12	0.00	17.51	7.290	5.12157	7.12529	0.0
6.8375	85.0512	-1.19	0.12	0.00	17.51	7.290	5.11908	7.12708	2.0
6.8575	85.0512	-1.19	0.12	0.00	17.51	7.290	5.11659	7.12886	2.0
6.8775	85.0512	-1.19	0.12	0.00	17.51	7.290	5.11410	7.13065	2.0
6.8975	85.0512	-1.19	0.12	0.00	17.51	7.290	5.11161	7.13243	4.0
6.9175	85.0512	-1.19	0.12	0.00	17.51	7.290	5.10912	7.13422	0.0
6.9375	85.0512	-1.19	0.12	0.00	17.51	7.290	5.10663	7.13600	2.0
6.9575	85.0512	-1.19	0.12	0.00	17.51	7.290	5.10414	7.13778	2.0
6.9775	85.0512	-1.19	0.12	0.00	17.51	7.290	5.10165	7.13956	0.0
6.9975	85.0512	-1.19	0.12	0.00	17.51	7.290	5.09916	7.14134	6.0
7.0175	85.0512	-1.19	0.12	0.00	17.51	7.290	5.09666	7.14312	2.0
7.0375	85.0512	-1.19	0.12	0.00	17.51	7.290	5.09417	7.14490	0.0
7.0575	85.0512	-1.19	0.12	0.00	17.51	7.290	5.09168	7.14668	0.0
7.0775	85.0512	-1.19	0.12	0.00	17.51	7.290	5.08918	7.14846	0.0
7.0975	85.0512	-1.19	0.12	0.00	17.51	7.290	5.08668	7.15023	0.0
7.1175	85.0512	-1.19	0.12	0.00	17.51	7.290	5.08419	7.15201	2.0
7.1375	85.0512	-1.19	0.12	0.00	17.51	7.290	5.08169	7.15378	0.0
7.1575	85.0512	-1.19	0.12	0.00	17.51	7.290	5.07919	7.15555	0.0
7.1775	85.0512	-1.19	0.12	0.00	17.51	7.290	5.07670	7.15733	2.0
7.1975	85.0512	-1.19	0.12	0.00	17.51	7.290	5.07420	7.15910	0.0
7.2175	85.0512	-1.19	0.12	0.00	17.51	7.290	5.07170	7.16087	0.0
7.2375	85.0512	-1.19	0.12	0.00	17.51	7.290	5.06920	7.16264	2.0
7.2575	85.0512	-1.19	0.12	0.00	17.51	7.290	5.06670	7.16441	0.0
7.2775	85.0512	-1.19	0.12	0.00	17.51	7.290	5.06420	7.16618	4.0
7.2975	85.0512	-1.19	0.12	0.00	17.51	7.290	5.06169	7.16794	4.0
7.3175	85.0512	-1.19	0.12	0.00	17.51	7.290	5.05919	7.16971	2.0
7.3375	85.0512	-1.19	0.12	0.00	17.51	7.290	5.05669	7.17148	0.0
7.3575	85.0512	-1.19	0.12	0.00	17.51	7.290	5.05419	7.17324	2.0
7.3775	85.0512	-1.19	0.12	0.00	17.51	7.290	5.05168	7.17500	0.0
7.3975	85.0512	-1.19	0.12	0.00	17.51	7.290	5.04918	7.17677	0.0
7.4175	85.0512	-1.19	0.12	0.00	17.51	7.290	5.04667	7.17853	8.0
7.4375	85.0512	-1.19	0.12	0.00	17.51	7.290	5.04416	7.18029	2.0
7.4575	85.0512	-1.19	0.12	0.00	17.51	7.290	5.04166	7.18205	0.0
7.4775	85.0512	-1.19	0.12	0.00	17.51	7.290	5.03915	7.18381	0.0
7.4975	85.0512	-1.19	0.12	0.00	17.51	7.290	5.03664	7.18557	0.0
7.5175	85.0512	-1.19	0.12	0.00	17.51	7.290	5.03413	7.18733	2.0
7.5375	85.0512	-1.19	0.12	0.00	17.51	7.290	5.03163	7.18908	4.0
7.5575	85.0512	-1.19	0.12	0.00	17.51	7.290	5.02912	7.19084	0.0
7.5775	85.0512	-1.19	0.12	0.00	17.51	7.290	5.02661	7.19259	2.0
7.5975	85.0512	-1.19	0.12	0.00	17.51	7.290	5.02409	7.19435	2.0
7.6175	85.0512	-1.19	0.12	0.00	17.51	7.290	5.02158	7.19610	0.0
7.6375	85.0512	-1.19	0.12	0.00	17.51	7.290	5.01907	7.19785	4.0
7.6575	85.0512	-1.19	0.12	0.00	17.51	7.290	5.01656	7.19961	0.0
7.6775	85.0512	-1.19	0.12	0.00	17.51	7.290	5.01404	7.20136	2.0
7.6975	85.0512	-1.19	0.12	0.00	17.51	7.290	5.01153	7.20311	0.0
7.7175	85.0512	-1.19	0.12	0.00	17.51	7.290	5.00902	7.20485	6.0
7.7375	85.0512	-1.19	0.12	0.00	17.51	7.290	5.00650	7.20660	2.0
7.7575	85.0512	-1.19	0.12	0.00	17.51	7.290	5.00398	7.20835	0.0
7.7775	85.0512	-1.19	0.12	0.00	17.51	7.290	5.00147	7.21010	0.0
7.7975	85.0512	-1.19	0.12	0.00	17.51	7.290	4.99895	7.21184	0.0
7.8175	85.0512	-1.19	0.12	0.00	17.51	7.290	4.99643	7.21359	0.0
7.8375	85.0512	-1.19	0.12	0.00	17.51	7.290	4.99391	7.21533	6.0
7.8575	85.0512	-1.19	0.12	0.00	17.51	7.290	4.99140	7.21707	6.0
7.8775	85.0512	-1.19	0.12	0.00	17.51	7.290	4.98888	7.21881	4.0
7.8975	85.0512	-1.19	0.12	0.00	17.51	7.290	4.98636	7.22056	0.0
7.9175	85.0512	-1.19	0.12	0.00	17.51	7.290	4.98384	7.22230	0.0
7.9375	85.0512	-1.19	0.12	0.00	17.51	7.290	4.98131	7.22403	0.0
7.9575	85.0512	-1.19	0.12	0.00	17.51	7.290	4.97879	7.22577	0.0
7.9775	85.0512	-1.19	0.12	0.00	17.51	7.290	4.97627	7.22751	0.0
7.9975	85.0512	-1.19	0.12	0.00	17.51	7.290	4.97375	7.22925	2.0
8.0175	85.0512	-1.19	0.12	0.00	17.51	7.290	4.97122	7.23098	2.0
8.0375	85.0512	-1.19	0.12	0.00	17.51	7.290	4.96870	7.23272	2.0
8.0575	85.0512	-1.19	0.12	0.00	17.51	7.290	4.96617	7.23445	0.0
8.0775	85.0512	-1.19	0.12	0.00	17.51	7.290	4.96365	7.23618	0.0
8.0975	85.0512	-1.19	0.12	0.00	17.51	7.290	4.96112	7.23792	2.0
8.1175	85.0512	-1.19	0.12	0.00	17.51	7.290	4.95859	7.23965	0.0
8.1375	85.0512	-1.19	0.12	0.00	17.51	7.290	4.95607	7.24138	2.0
8.1575	85.0512	-1.19	0.12	0.00	17.51	7.290	4.95354	7.24311	0.0
8.1775	85.0512	-1.19	0.12	0.00	17.51	7.290	4.95101	7.24484	0.0
8.1975	85.0512	-1.19	0.12	0.00	17.51	7.290	4.94848	7.24656	0.0
8.2175	85.0512	-1.19	0.12	0.00	17.51	7.290	4.94595	7.24829	0.0
8.2375	85.0512	-1.19	0.12	0.00	17.51	7.290	4.94342	7.25002	4.0
8.2575	85.0512	-1.19	0.12	0.00	17.51	7.290	4.94089	7.25174	0.0
8.2775	85.0512	-1.19	0.12	0.00	17.51	7.290	4.93836	7.25347	4.0
8.2975	85.0512	-1.19	0.12	0.00	17.51	7.290	4.93583	7.25519	0.0
8.3175	85.0512	-1.19	0.12	0.00	17.51	7.290	4.93329	7.25691	0.0
8.3375	85.0512	-1.19	0.12	0.00	17.51	7.290	4.93076	7.25863	0.0
8.3575	85.0512	-1.19	0.12	0.00	17.51	7.290	4.92823	7.26036	0.0
8.3775	85.0512	-1.19	0.12	0.00	17.51	7.290	4.92569	7.26208	2.0
8.3975	85.0512	-1.19	0.12	0.00	17.51	7.290	4.92316	7.26379	2.0
8.4175	85.0512	-1.19	0.12	0.00	17.51	7.290	4.92062	7.26551	2.0
8.4375	85.0512	-1.19	0.12	0.00	17.51	7.290	4.91808	7.26723	0.0
8.4575	85.0512	-1.19	0.12	0.00	17.51	7.290	4.91555	7.26895	0.0
8.4775	85.0512	-1.19	0.12	0.00	17.51	7.290	4.91301	7.27066	2.0
8.4975	85.0512	-1.19	0.12	0.00	17.51	7.290	4.91047	7.27238	4.0
8.5175	85.0512	-1.19	0.12	0.00	17.51	7.290	4.90793	7.27409	0.0
8.5375	85.0512	-1.19	0.12	0.00	17.51	7.290	4.90539	7.27580	0.0
8.5575	85.0512	-1.19	0.12	0.00	17.51	7.290	4.90285	7.27751	0.0

6.5675	85.0712	-1.19	0.12	0.00	17.51	7.290	5.15483	7.10332	0.0
6.5875	85.0712	-1.19	0.12	0.00	17.51	7.290	5.15235	7.10512	0.0
6.6075	85.0712	-1.19	0.12	0.00	17.51	7.290	5.14987	7.10692	0.0
6.6275	85.0712	-1.19	0.12	0.00	17.51	7.290	5.14739	7.10872	2.0
6.6475	85.0712	-1.19	0.12	0.00	17.51	7.290	5.14490	7.11052	0.0
6.6675	85.0712	-1.19	0.12	0.00	17.51	7.290	5.14242	7.11231	2.0
6.6875	85.0712	-1.19	0.12	0.00	17.51	7.290	5.13994	7.11411	0.0
6.7075	85.0712	-1.19	0.12	0.00	17.51	7.290	5.13746	7.11590	0.0
6.7275	85.0712	-1.19	0.12	0.00	17.51	7.290	5.13497	7.11769	0.0
6.7475	85.0712	-1.19	0.12	0.00	17.51	7.290	5.13249	7.11948	0.0
6.7675	85.0712	-1.19	0.12	0.00	17.51	7.290	5.13000	7.12128	0.0
6.7875	85.0712	-1.19	0.12	0.00	17.51	7.290	5.12751	7.12307	2.0
6.8075	85.0712	-1.19	0.12	0.00	17.51	7.290	5.12503	7.12485	0.0
6.8275	85.0712	-1.19	0.12	0.00	17.51	7.290	5.12254	7.12664	0.0
6.8475	85.0712	-1.19	0.12	0.00	17.51	7.290	5.12005	7.12843	2.0
6.8675	85.0712	-1.19	0.12	0.00	17.51	7.290	5.11756	7.13022	0.0
6.8875	85.0712	-1.19	0.12	0.00	17.51	7.290	5.11507	7.13200	2.0
6.9075	85.0712	-1.19	0.12	0.00	17.51	7.290	5.11259	7.13379	0.0
6.9275	85.0712	-1.19	0.12	0.00	17.51	7.290	5.11009	7.13557	2.0
6.9475	85.0712	-1.19	0.12	0.00	17.51	7.290	5.10760	7.13736	0.0
6.9675	85.0712	-1.19	0.12	0.00	17.51	7.290	5.10511	7.13914	2.0
6.9875	85.0712	-1.19	0.12	0.00	17.51	7.290	5.10262	7.14092	0.0
7.0075	85.0712	-1.19	0.12	0.00	17.51	7.290	5.10013	7.14270	4.0
7.0275	85.0712	-1.19	0.12	0.00	17.51	7.290	5.09763	7.14448	0.0
7.0475	85.0712	-1.19	0.12	0.00	17.51	7.290	5.09514	7.14626	0.0
7.0675	85.0712	-1.19	0.12	0.00	17.51	7.290	5.09264	7.14804	2.0
7.0875	85.0712	-1.19	0.12	0.00	17.51	7.290	5.09015	7.14982	0.0
7.1075	85.0712	-1.19	0.12	0.00	17.51	7.290	5.08765	7.15159	2.0
7.1275	85.0712	-1.19	0.12	0.00	17.51	7.290	5.08516	7.15337	4.0
7.1475	85.0712	-1.19	0.12	0.00	17.51	7.290	5.08266	7.15514	0.0
7.1675	85.0712	-1.19	0.12	0.00	17.51	7.290	5.08016	7.15692	2.0
7.1875	85.0712	-1.19	0.12	0.00	17.51	7.290	5.07766	7.15869	4.0
7.2075	85.0712	-1.19	0.12	0.00	17.51	7.290	5.07516	7.16046	2.0
7.2275	85.0712	-1.19	0.12	0.00	17.51	7.290	5.07266	7.16223	4.0
7.2475	85.0712	-1.19	0.12	0.00	17.51	7.290	5.07016	7.16400	2.0
7.2675	85.0712	-1.19	0.12	0.00	17.51	7.290	5.06766	7.16577	0.0
7.2875	85.0712	-1.19	0.12	0.00	17.51	7.290	5.06516	7.16754	0.0
7.3075	85.0712	-1.19	0.12	0.00	17.51	7.290	5.06266	7.16931	2.0
7.3275	85.0712	-1.19	0.12	0.00	17.51	7.290	5.06015	7.17107	0.0
7.3475	85.0712	-1.19	0.12	0.00	17.51	7.290	5.05765	7.17284	0.0
7.3675	85.0712	-1.19	0.12	0.00	17.51	7.290	5.05515	7.17461	0.0
7.3875	85.0712	-1.19	0.12	0.00	17.51	7.290	5.05264	7.17637	8.0
7.4075	85.0712	-1.19	0.12	0.00	17.51	7.290	5.05014	7.17813	2.0
7.4275	85.0712	-1.19	0.12	0.00	17.51	7.290	5.04763	7.17989	2.0
7.4475	85.0712	-1.19	0.12	0.00	17.51	7.290	5.04512	7.18166	2.0
7.4675	85.0712	-1.19	0.12	0.00	17.51	7.290	5.04262	7.18342	2.0
7.4875	85.0712	-1.19	0.12	0.00	17.51	7.290	5.04011	7.18518	0.0
7.5075	85.0712	-1.19	0.12	0.00	17.51	7.290	5.03760	7.18694	0.0
7.5275	85.0712	-1.19	0.12	0.00	17.51	7.290	5.03509	7.18869	2.0
7.5475	85.0712	-1.19	0.12	0.00	17.51	7.290	5.03258	7.19045	4.0
7.5675	85.0712	-1.19	0.12	0.00	17.51	7.290	5.03007	7.19221	6.0
7.5875	85.0712	-1.19	0.12	0.00	17.51	7.290	5.02756	7.19396	0.0
7.6075	85.0712	-1.19	0.12	0.00	17.51	7.290	5.02505	7.19572	0.0
7.6275	85.0712	-1.19	0.12	0.00	17.51	7.290	5.02254	7.19747	0.0
7.6475	85.0712	-1.19	0.12	0.00	17.51	7.290	5.02003	7.19922	4.0
7.6675	85.0712	-1.19	0.12	0.00	17.51	7.290	5.01751	7.20098	0.0
7.6875	85.0712	-1.19	0.12	0.00	17.51	7.290	5.01500	7.20273	4.0
7.7075	85.0712	-1.19	0.12	0.00	17.51	7.290	5.01248	7.20448	0.0
7.7275	85.0712	-1.19	0.12	0.00	17.51	7.290	5.00997	7.20623	0.0
7.7475	85.0712	-1.19	0.12	0.00	17.51	7.290	5.00745	7.20797	2.0
7.7675	85.0712	-1.19	0.12	0.00	17.51	7.290	5.00494	7.20972	2.0
7.7875	85.0712	-1.19	0.12	0.00	17.51	7.290	5.00242	7.21147	2.0
7.8075	85.0712	-1.19	0.12	0.00	17.51	7.290	4.99990	7.21321	2.0
7.8275	85.0712	-1.19	0.12	0.00	17.51	7.290	4.99738	7.21496	0.0
7.8475	85.0712	-1.19	0.12	0.00	17.51	7.290	4.99486	7.21670	2.0
7.8675	85.0712	-1.19	0.12	0.00	17.51	7.290	4.99235	7.21845	2.0
7.8875	85.0712	-1.19	0.12	0.00	17.51	7.290	4.98983	7.22019	0.0
7.9075	85.0712	-1.19	0.12	0.00	17.51	7.290	4.98730	7.22193	0.0
7.9275	85.0712	-1.19	0.12	0.00	17.51	7.290	4.98478	7.22367	2.0
7.9475	85.0712	-1.19	0.12	0.00	17.51	7.290	4.98226	7.22541	0.0
7.9675	85.0712	-1.19	0.12	0.00	17.51	7.290	4.97974	7.22715	0.0
7.9875	85.0712	-1.19	0.12	0.00	17.51	7.290	4.97722	7.22889	0.0
8.0075	85.0712	-1.19	0.12	0.00	17.51	7.290	4.97469	7.23062	2.0
8.0275	85.0712	-1.19	0.12	0.00	17.51	7.290	4.97217	7.23236	0.0
8.0475	85.0712	-1.19	0.12	0.00	17.51	7.290	4.96964	7.23409	0.0
8.0675	85.0712	-1.19	0.12	0.00	17.51	7.290	4.96712	7.23583	0.0
8.0875	85.0712	-1.19	0.12	0.00	17.51	7.290	4.96459	7.23756	0.0
8.1075	85.0712	-1.19	0.12	0.00	17.51	7.290	4.96207	7.23929	0.0
8.1275	85.0712	-1.19	0.12	0.00	17.51	7.290	4.95954	7.24103	4.0
8.1475	85.0712	-1.19	0.12	0.00	17.51	7.290	4.95701	7.24276	4.0
8.1675	85.0712	-1.19	0.12	0.00	17.51	7.290	4.95448	7.24449	0.0
8.1875	85.0712	-1.19	0.12	0.00	17.51	7.290	4.95195	7.24622	0.0
8.2075	85.0712	-1.19	0.12	0.00	17.51	7.290	4.94942	7.24794	0.0
8.2275	85.0712	-1.19	0.12	0.00	17.51	7.290	4.94689	7.24967	0.0
8.2475	85.0712	-1.19	0.12	0.00	17.51	7.290	4.94436	7.25140	0.0
8.2675	85.0712	-1.19	0.12	0.00	17.51	7.290	4.94183	7.25312	2.0
8.2875	85.0712	-1.19	0.12	0.00	17.51	7.290	4.93930	7.25485	2.0
8.3075	85.0712	-1.19	0.12	0.00	17.51	7.290	4.93676	7.25657	2.0
8.3275	85.0712	-1.19	0.12	0.00	17.51	7.290	4.93423	7.25829	0.0
8.3475	85.0712	-1.19	0.12	0.00	17.51	7.290	4.93170	7.26002	0.0
8.3675	85.0712	-1.19	0.12	0.00	17.51	7.290	4.92916	7.26174	2.0
8.3875	85.0712	-1.19	0.12	0.00	17.51	7.290	4.92663	7.26346	0.0
8.4075	85.0712	-1.19	0.12	0.00	17.51	7.290	4.92409	7.26518	0.0
8.4275	85.0712	-1.19	0.12	0.00	17.51	7.290	4.92156	7.26689	0.0
8.4475	85.0712	-1.19	0.12	0.00	17.51	7.290	4.91902	7.26861	0.0
8.4675	85.0712	-1.19	0.12	0.00	17.51	7.290	4.91648	7.27033	2.0
8.4875	85.0712	-1.19	0.12	0.00	17.51	7.290	4.91394	7.27204	0.0
8.5075	85.0712	-1.19	0.12	0.00	17.51	7.290	4.91140	7.27376	2.0
8.5275	85.0712	-1.19	0.12	0.00	17.51	7.290	4.90887	7.27547	0.0
8.5475	85.0712	-1.19	0.12	0.00	17.51	7.290	4.90633	7.27719	2.0
8.5675	85.0712	-1.19	0.12	0.00	17.51	7.290	4.90378	7.27890	0.0

6.5775	85.0912	-1.19	0.12	0.00	17.51	7.290	5.15581	7.10468	2.0
6.5975	85.0912	-1.19	0.12	0.00	17.51	7.290	5.15333	7.10648	0.0
6.6175	85.0912	-1.19	0.12	0.00	17.51	7.290	5.15085	7.10827	0.0
6.6375	85.0912	-1.19	0.12	0.00	17.51	7.290	5.14837	7.11007	2.0
6.6575	85.0912	-1.19	0.12	0.00	17.51	7.290	5.14588	7.11187	0.0
6.6775	85.0912	-1.19	0.12	0.00	17.51	7.290	5.14340	7.11366	0.0
6.6975	85.0912	-1.19	0.12	0.00	17.51	7.290	5.14092	7.11546	0.0
6.7175	85.0912	-1.19	0.12	0.00	17.51	7.290	5.13843	7.11725	0.0
6.7375	85.0912	-1.19	0.12	0.00	17.51	7.290	5.13595	7.11905	4.0
6.7575	85.0912	-1.19	0.12	0.00	17.51	7.290	5.13346	7.12084	0.0
6.7775	85.0912	-1.19	0.12	0.00	17.51	7.290	5.13098	7.12263	4.0
6.7975	85.0912	-1.19	0.12	0.00	17.51	7.290	5.12849	7.12442	0.0
6.8175	85.0912	-1.19	0.12	0.00	17.51	7.290	5.12600	7.12621	2.0
6.8375	85.0912	-1.19	0.12	0.00	17.51	7.290	5.12352	7.12800	0.0
6.8575	85.0912	-1.19	0.12	0.00	17.51	7.290	5.12103	7.12979	0.0
6.8775	85.0912	-1.19	0.12	0.00	17.51	7.290	5.11854	7.13157	2.0
6.8975	85.0912	-1.19	0.12	0.00	17.51	7.290	5.11605	7.13336	2.0
6.9175	85.0912	-1.19	0.12	0.00	17.51	7.290	5.11356	7.13515	0.0
6.9375	85.0912	-1.19	0.12	0.00	17.51	7.290	5.11107	7.13693	4.0
6.9575	85.0912	-1.19	0.12	0.00	17.51	7.290	5.10858	7.13871	0.0
6.9775	85.0912	-1.19	0.12	0.00	17.51	7.290	5.10608	7.14050	2.0
6.9975	85.0912	-1.19	0.12	0.00	17.51	7.290	5.10359	7.14228	4.0
7.0175	85.0912	-1.19	0.12	0.00	17.51	7.290	5.10110	7.14406	2.0
7.0375	85.0912	-1.19	0.12	0.00	17.51	7.290	5.09860	7.14584	0.0
7.0575	85.0912	-1.19	0.12	0.00	17.51	7.290	5.09611	7.14762	4.0
7.0775	85.0912	-1.19	0.12	0.00	17.51	7.290	5.09361	7.14940	0.0
7.0975	85.0912	-1.19	0.12	0.00	17.51	7.290	5.09112	7.15118	0.0
7.1175	85.0912	-1.19	0.12	0.00	17.51	7.290	5.08862	7.15295	0.0
7.1375	85.0912	-1.19	0.12	0.00	17.51	7.290	5.08612	7.15473	0.0
7.1575	85.0912	-1.19	0.12	0.00	17.51	7.290	5.08363	7.15650	4.0
7.1775	85.0912	-1.19	0.12	0.00	17.51	7.290	5.08113	7.15828	0.0
7.1975	85.0912	-1.19	0.12	0.00	17.51	7.290	5.07863	7.16005	2.0
7.2175	85.0912	-1.19	0.12	0.00	17.51	7.290	5.07613	7.16182	6.0
7.2375	85.0912	-1.19	0.12	0.00	17.51	7.290	5.07363	7.16359	0.0
7.2575	85.0912	-1.19	0.12	0.00	17.51	7.290	5.07113	7.16536	2.0
7.2775	85.0912	-1.19	0.12	0.00	17.51	7.290	5.06863	7.16713	0.0
7.2975	85.0912	-1.19	0.12	0.00	17.51	7.290	5.06612	7.16890	0.0
7.3175	85.0912	-1.19	0.12	0.00	17.51	7.290	5.06362	7.17067	0.0
7.3375	85.0912	-1.19	0.12	0.00	17.51	7.290	5.06112	7.17244	0.0
7.3575	85.0912	-1.19	0.12	0.00	17.51	7.290	5.05861	7.17420	0.0
7.3775	85.0912	-1.19	0.12	0.00	17.51	7.290	5.05611	7.17597	2.0
7.3975	85.0912	-1.19	0.12	0.00	17.51	7.290	5.05360	7.17773	0.0
7.4175	85.0912	-1.19	0.12	0.00	17.51	7.290	5.05110	7.17950	2.0
7.4375	85.0912	-1.19	0.12	0.00	17.51	7.290	5.04859	7.18126	0.0
7.4575	85.0912	-1.19	0.12	0.00	17.51	7.290	5.04608	7.18302	2.0
7.4775	85.0912	-1.19	0.12	0.00	17.51	7.290	5.04358	7.18478	0.0
7.4975	85.0912	-1.19	0.12	0.00	17.51	7.290	5.04107	7.18654	0.0
7.5175	85.0912	-1.19	0.12	0.00	17.51	7.290	5.03856	7.18830	0.0
7.5375	85.0912	-1.19	0.12	0.00	17.51	7.290	5.03605	7.19006	0.0
7.5575	85.0912	-1.19	0.12	0.00	17.51	7.290	5.03354	7.19182	0.0
7.5775	85.0912	-1.19	0.12	0.00	17.51	7.290	5.03103	7.19358	0.0
7.5975	85.0912	-1.19	0.12	0.00	17.51	7.290	5.02852	7.19533	0.0
7.6175	85.0912	-1.19	0.12	0.00	17.51	7.290	5.02601	7.19709	2.0
7.6375	85.0912	-1.19	0.12	0.00	17.51	7.290	5.02349	7.19884	4.0
7.6575	85.0912	-1.19	0.12	0.00	17.51	7.290	5.02098	7.20059	0.0
7.6775	85.0912	-1.19	0.12	0.00	17.51	7.290	5.01847	7.20235	2.0
7.6975	85.0912	-1.19	0.12	0.00	17.51	7.290	5.01595	7.20410	0.0
7.7175	85.0912	-1.19	0.12	0.00	17.51	7.290	5.01344	7.20585	2.0
7.7375	85.0912	-1.19	0.12	0.00	17.51	7.290	5.01092	7.20760	4.0
7.7575	85.0912	-1.19	0.12	0.00	17.51	7.290	5.00841	7.20935	0.0
7.7775	85.0912	-1.19	0.12	0.00	17.51	7.290	5.00589	7.21109	0.0
7.7975	85.0912	-1.19	0.12	0.00	17.51	7.290	5.00337	7.21284	0.0
7.8175	85.0912	-1.19	0.12	0.00	17.51	7.290	5.00085	7.21459	0.0
7.8375	85.0912	-1.19	0.12	0.00	17.51	7.290	4.99833	7.21633	0.0
7.8575	85.0912	-1.19	0.12	0.00	17.51	7.290	4.99581	7.21808	0.0
7.8775	85.0912	-1.19	0.12	0.00	17.51	7.290	4.99329	7.21982	0.0
7.8975	85.0912	-1.19	0.12	0.00	17.51	7.290	4.99077	7.22156	2.0
7.9175	85.0912	-1.19	0.12	0.00	17.51	7.290	4.98825	7.22330	4.0
7.9375	85.0912	-1.19	0.12	0.00	17.51	7.290	4.98573	7.22504	0.0
7.9575	85.0912	-1.19	0.12	0.00	17.51	7.290	4.98321	7.22678	2.0
7.9775	85.0912	-1.19	0.12	0.00	17.51	7.290	4.98069	7.22852	2.0
7.9975	85.0912	-1.19	0.12	0.00	17.51	7.290	4.97816	7.23026	0.0
8.0175	85.0912	-1.19	0.12	0.00	17.51	7.290	4.97564	7.23200	0.0
8.0375	85.0912	-1.19	0.12	0.00	17.51	7.290	4.97311	7.23373	2.0
8.0575	85.0912	-1.19	0.12	0.00	17.51	7.290	4.97059	7.23547	4.0
8.0775	85.0912	-1.19	0.12	0.00	17.51	7.290	4.96806	7.23720	2.0
8.0975	85.0912	-1.19	0.12	0.00	17.51	7.290	4.96554	7.23894	0.0
8.1175	85.0912	-1.19	0.12	0.00	17.51	7.290	4.96301	7.24067	0.0
8.1375	85.0912	-1.19	0.12	0.00	17.51	7.290	4.96048	7.24240	0.0
8.1575	85.0912	-1.19	0.12	0.00	17.51	7.290	4.95795	7.24413	0.0
8.1775	85.0912	-1.19	0.12	0.00	17.51	7.290	4.95542	7.24586	0.0
8.1975	85.0912	-1.19	0.12	0.00	17.51	7.290	4.95289	7.24759	4.0
8.2175	85.0912	-1.19	0.12	0.00	17.51	7.290	4.95036	7.24932	0.0
8.2375	85.0912	-1.19	0.12	0.00	17.51	7.290	4.94783	7.25105	2.0
8.2575	85.0912	-1.19	0.12	0.00	17.51	7.290	4.94530	7.25278	2.0
8.2775	85.0912	-1.19	0.12	0.00	17.51	7.290	4.94277	7.25450	2.0
8.2975	85.0912	-1.19	0.12	0.00	17.51	7.290	4.94024	7.25623	2.0
8.3175	85.0912	-1.19	0.12	0.00	17.51	7.290	4.93770	7.25795	4.0
8.3375	85.0912	-1.19	0.12	0.00	17.51	7.290	4.93517	7.25967	2.0
8.3575	85.0912	-1.19	0.12	0.00	17.51	7.290	4.93264	7.26140	2.0
8.3775	85.0912	-1.19	0.12	0.00	17.51	7.290	4.93010	7.26312	2.0
8.3975	85.0912	-1.19	0.12	0.00	17.51	7.290	4.92757	7.26484	0.0
8.4175	85.0912	-1.19	0.12	0.00	17.51	7.290	4.92503	7.26656	4.0
8.4375	85.0912	-1.19	0.12	0.00	17.51	7.290	4.92249	7.26828	2.0
8.4575	85.0912	-1.19	0.12	0.00	17.51	7.290	4.91995	7.26999	0.0
8.4775	85.0912	-1.19	0.12	0.00	17.51	7.290	4.91742	7.27171	0.0
8.4975	85.0912	-1.19	0.12	0.00	17.51	7.290	4.91488	7.27343	0.0
8.5175	85.0912	-1.19	0.12	0.00	17.51	7.290	4.91234	7.27514	0.0
8.5375	85.0912	-1.19	0.12	0.00	17.51	7.290	4.90980	7.27686	0.0
8.5575	85.0912	-1.19	0.12	0.00	17.51	7.290	4.90726	7.27857	0.0
8.5775	85.0912	-1.19	0.12	0.00	17.51	7.290	4.90472	7.28028	0.0

6.5875	85.1112	-1.19	0.12	0.00	17.51	7.290	5.15679	7.10603	0.0
6.6075	85.1112	-1.19	0.12	0.00	17.51	7.290	5.15431	7.10783	0.0
6.6275	85.1112	-1.19	0.12	0.00	17.51	7.290	5.15183	7.10963	0.0
6.6475	85.1112	-1.19	0.12	0.00	17.51	7.290	5.14934	7.11142	0.0
6.6675	85.1112	-1.19	0.12	0.00	17.51	7.290	5.14686	7.11322	0.0
6.6875	85.1112	-1.19	0.12	0.00	17.51	7.290	5.14438	7.11502	0.0
6.7075	85.1112	-1.19	0.12	0.00	17.51	7.290	5.14189	7.11681	4.0
6.7275	85.1112	-1.19	0.12	0.00	17.51	7.290	5.13941	7.11861	4.0
6.7475	85.1112	-1.19	0.12	0.00	17.51	7.290	5.13692	7.12040	2.0
6.7675	85.1112	-1.19	0.12	0.00	17.51	7.290	5.13444	7.12219	0.0
6.7875	85.1112	-1.19	0.12	0.00	17.51	7.290	5.13195	7.12398	0.0
6.8075	85.1112	-1.19	0.12	0.00	17.51	7.290	5.12947	7.12578	2.0
6.8275	85.1112	-1.19	0.12	0.00	17.51	7.290	5.12698	7.12757	4.0
6.8475	85.1112	-1.19	0.12	0.00	17.51	7.290	5.12449	7.12935	2.0
6.8675	85.1112	-1.19	0.12	0.00	17.51	7.290	5.12200	7.13114	0.0
6.8875	85.1112	-1.19	0.12	0.00	17.51	7.290	5.11951	7.13293	2.0
6.9075	85.1112	-1.19	0.12	0.00	17.51	7.290	5.11702	7.13472	0.0
6.9275	85.1112	-1.19	0.12	0.00	17.51	7.290	5.11453	7.13650	0.0
6.9475	85.1112	-1.19	0.12	0.00	17.51	7.290	5.11204	7.13829	0.0
6.9675	85.1112	-1.19	0.12	0.00	17.51	7.290	5.10955	7.14007	0.0
6.9875	85.1112	-1.19	0.12	0.00	17.51	7.290	5.10705	7.14185	0.0
7.0075	85.1112	-1.19	0.12	0.00	17.51	7.290	5.10456	7.14364	0.0
7.0275	85.1112	-1.19	0.12	0.00	17.51	7.290	5.10207	7.14542	0.0
7.0475	85.1112	-1.19	0.12	0.00	17.51	7.290	5.09957	7.14720	2.0
7.0675	85.1112	-1.19	0.12	0.00	17.51	7.290	5.09708	7.14898	2.0
7.0875	85.1112	-1.19	0.12	0.00	17.51	7.290	5.09458	7.15076	0.0
7.1075	85.1112	-1.19	0.12	0.00	17.51	7.290	5.09208	7.15254	2.0
7.1275	85.1112	-1.19	0.12	0.00	17.51	7.290	5.08959	7.15431	0.0
7.1475	85.1112	-1.19	0.12	0.00	17.51	7.290	5.08709	7.15609	0.0
7.1675	85.1112	-1.19	0.12	0.00	17.51	7.290	5.08459	7.15786	2.0
7.1875	85.1112	-1.19	0.12	0.00	17.51	7.290	5.08209	7.15964	4.0
7.2075	85.1112	-1.19	0.12	0.00	17.51	7.290	5.07959	7.16141	0.0
7.2275	85.1112	-1.19	0.12	0.00	17.51	7.290	5.07709	7.16318	6.0
7.2475	85.1112	-1.19	0.12	0.00	17.51	7.290	5.07459	7.16496	0.0
7.2675	85.1112	-1.19	0.12	0.00	17.51	7.290	5.07209	7.16673	2.0
7.2875	85.1112	-1.19	0.12	0.00	17.51	7.290	5.06959	7.16850	0.0
7.3075	85.1112	-1.19	0.12	0.00	17.51	7.290	5.06709	7.17027	0.0
7.3275	85.1112	-1.19	0.12	0.00	17.51	7.290	5.06458	7.17203	2.0
7.3475	85.1112	-1.19	0.12	0.00	17.51	7.290	5.06208	7.17380	2.0
7.3675	85.1112	-1.19	0.12	0.00	17.51	7.290	5.05958	7.17557	0.0
7.3875	85.1112	-1.19	0.12	0.00	17.51	7.290	5.05707	7.17733	6.0
7.4075	85.1112	-1.19	0.12	0.00	17.51	7.290	5.05456	7.17910	2.0
7.4275	85.1112	-1.19	0.12	0.00	17.51	7.290	5.05206	7.18086	0.0
7.4475	85.1112	-1.19	0.12	0.00	17.51	7.290	5.04955	7.18263	2.0
7.4675	85.1112	-1.19	0.12	0.00	17.51	7.290	5.04704	7.18439	0.0
7.4875	85.1112	-1.19	0.12	0.00	17.51	7.290	5.04454	7.18615	0.0
7.5075	85.1112	-1.19	0.12	0.00	17.51	7.290	5.04203	7.18791	0.0
7.5275	85.1112	-1.19	0.12	0.00	17.51	7.290	5.03952	7.18967	0.0
7.5475	85.1112	-1.19	0.12	0.00	17.51	7.290	5.03701	7.19143	0.0
7.5675	85.1112	-1.19	0.12	0.00	17.51	7.290	5.03450	7.19319	2.0
7.5875	85.1112	-1.19	0.12	0.00	17.51	7.290	5.03199	7.19494	6.0
7.6075	85.1112	-1.19	0.12	0.00	17.51	7.290	5.02947	7.19670	2.0
7.6275	85.1112	-1.19	0.12	0.00	17.51	7.290	5.02696	7.19845	4.0
7.6475	85.1112	-1.19	0.12	0.00	17.51	7.290	5.02445	7.20021	0.0
7.6675	85.1112	-1.19	0.12	0.00	17.51	7.290	5.02193	7.20196	2.0
7.6875	85.1112	-1.19	0.12	0.00	17.51	7.290	5.01942	7.20371	2.0
7.7075	85.1112	-1.19	0.12	0.00	17.51	7.290	5.01691	7.20547	0.0
7.7275	85.1112	-1.19	0.12	0.00	17.51	7.290	5.01439	7.20722	0.0
7.7475	85.1112	-1.19	0.12	0.00	17.51	7.290	5.01187	7.20897	0.0
7.7675	85.1112	-1.19	0.12	0.00	17.51	7.290	5.00936	7.21072	0.0
7.7875	85.1112	-1.19	0.12	0.00	17.51	7.290	5.00684	7.21246	2.0
7.8075	85.1112	-1.19	0.12	0.00	17.51	7.290	5.00432	7.21421	2.0
7.8275	85.1112	-1.19	0.12	0.00	17.51	7.290	5.00180	7.21596	2.0
7.8475	85.1112	-1.19	0.12	0.00	17.51	7.290	4.99928	7.21770	0.0
7.8675	85.1112	-1.19	0.12	0.00	17.51	7.290	4.99676	7.21945	2.0
7.8875	85.1112	-1.19	0.12	0.00	17.51	7.290	4.99424	7.22119	0.0
7.9075	85.1112	-1.19	0.12	0.00	17.51	7.290	4.99172	7.22293	0.0
7.9275	85.1112	-1.19	0.12	0.00	17.51	7.290	4.98920	7.22468	2.0
7.9475	85.1112	-1.19	0.12	0.00	17.51	7.290	4.98668	7.22642	2.0
7.9675	85.1112	-1.19	0.12	0.00	17.51	7.290	4.98416	7.22816	4.0
7.9875	85.1112	-1.19	0.12	0.00	17.51	7.290	4.98163	7.22990	0.0
8.0075	85.1112	-1.19	0.12	0.00	17.51	7.290	4.97911	7.23164	4.0
8.0275	85.1112	-1.19	0.12	0.00	17.51	7.290	4.97658	7.23337	0.0
8.0475	85.1112	-1.19	0.12	0.00	17.51	7.290	4.97406	7.23511	2.0
8.0675	85.1112	-1.19	0.12	0.00	17.51	7.290	4.97153	7.23685	0.0
8.0875	85.1112	-1.19	0.12	0.00	17.51	7.290	4.96901	7.23858	0.0
8.1075	85.1112	-1.19	0.12	0.00	17.51	7.290	4.96648	7.24031	2.0
8.1275	85.1112	-1.19	0.12	0.00	17.51	7.290	4.96395	7.24205	0.0
8.1475	85.1112	-1.19	0.12	0.00	17.51	7.290	4.96142	7.24378	2.0
8.1675	85.1112	-1.19	0.12	0.00	17.51	7.290	4.95890	7.24551	0.0
8.1875	85.1112	-1.19	0.12	0.00	17.51	7.290	4.95637	7.24724	0.0
8.2075	85.1112	-1.19	0.12	0.00	17.51	7.290	4.95384	7.24897	0.0
8.2275	85.1112	-1.19	0.12	0.00	17.51	7.290	4.95131	7.25070	0.0
8.2475	85.1112	-1.19	0.12	0.00	17.51	7.290	4.94877	7.25243	2.0
8.2675	85.1112	-1.19	0.12	0.00	17.51	7.290	4.94624	7.25416	0.0
8.2875	85.1112	-1.19	0.12	0.00	17.51	7.290	4.94371	7.25588	2.0
8.3075	85.1112	-1.19	0.12	0.00	17.51	7.290	4.94118	7.25761	0.0
8.3275	85.1112	-1.19	0.12	0.00	17.51	7.290	4.93864	7.25933	0.0
8.3475	85.1112	-1.19	0.12	0.00	17.51	7.290	4.93611	7.26105	0.0
8.3675	85.1112	-1.19	0.12	0.00	17.51	7.290	4.93357	7.26278	0.0
8.3875	85.1112	-1.19	0.12	0.00	17.51	7.290	4.93104	7.26450	0.0
8.4075	85.1112	-1.19	0.12	0.00	17.51	7.290	4.92850	7.26622	2.0
8.4275	85.1112	-1.19	0.12	0.00	17.51	7.290	4.92597	7.26794	0.0
8.4475	85.1112	-1.19	0.12	0.00	17.51	7.290	4.92343	7.26966	0.0
8.4675	85.1112	-1.19	0.12	0.00	17.51	7.290	4.92089	7.27138	0.0
8.4875	85.1112	-1.19	0.12	0.00	17.51	7.290	4.91835	7.27309	0.0
8.5075	85.1112	-1.19	0.12	0.00	17.51	7.290	4.91581	7.27481	0.0
8.5275	85.1112	-1.19	0.12	0.00	17.51	7.290	4.91327	7.27653	2.0
8.5475	85.1112	-1.19	0.12	0.00	17.51	7.290	4.91073	7.27824	4.0
8.5675	85.1112	-1.19	0.12	0.00	17.51	7.290	4.90819	7.27995	2.0
8.5875	85.1112	-1.19	0.12	0.00	17.51	7.290	4.90565	7.28167	2.0

6.5975	85.1312	-1.19	0.12	0.00	17.51	7.290	5.15777	7.10738	0.0
6.6175	85.1312	-1.19	0.12	0.00	17.51	7.290	5.15529	7.10918	0.0
6.6375	85.1312	-1.19	0.12	0.00	17.51	7.290	5.15281	7.11098	0.0
6.6575	85.1312	-1.19	0.12	0.00	17.51	7.290	5.15032	7.11278	2.0
6.6775	85.1312	-1.19	0.12	0.00	17.51	7.290	5.14784	7.11457	0.0
6.6975	85.1312	-1.19	0.12	0.00	17.51	7.290	5.14536	7.11637	2.0
6.7175	85.1312	-1.19	0.12	0.00	17.51	7.290	5.14287	7.11816	2.0
6.7375	85.1312	-1.19	0.12	0.00	17.51	7.290	5.14039	7.11996	0.0
6.7575	85.1312	-1.19	0.12	0.00	17.51	7.290	5.13790	7.12175	4.0
6.7775	85.1312	-1.19	0.12	0.00	17.51	7.290	5.13541	7.12355	8.0
6.7975	85.1312	-1.19	0.12	0.00	17.51	7.290	5.13293	7.12534	0.0
6.8175	85.1312	-1.19	0.12	0.00	17.51	7.290	5.13044	7.12713	0.0
6.8375	85.1312	-1.19	0.12	0.00	17.51	7.290	5.12795	7.12892	0.0
6.8575	85.1312	-1.19	0.12	0.00	17.51	7.290	5.12546	7.13071	0.0
6.8775	85.1312	-1.19	0.12	0.00	17.51	7.290	5.12297	7.13250	2.0
6.8975	85.1312	-1.19	0.12	0.00	17.51	7.290	5.12048	7.13429	4.0
6.9175	85.1312	-1.19	0.12	0.00	17.51	7.290	5.11799	7.13607	0.0
6.9375	85.1312	-1.19	0.12	0.00	17.51	7.290	5.11550	7.13786	2.0
6.9575	85.1312	-1.19	0.12	0.00	17.51	7.290	5.11301	7.13964	2.0
6.9775	85.1312	-1.19	0.12	0.00	17.51	7.290	5.11052	7.14143	0.0
6.9975	85.1312	-1.19	0.12	0.00	17.51	7.290	5.10802	7.14321	0.0
7.0175	85.1312	-1.19	0.12	0.00	17.51	7.290	5.10553	7.14499	2.0
7.0375	85.1312	-1.19	0.12	0.00	17.51	7.290	5.10304	7.14678	6.0
7.0575	85.1312	-1.19	0.12	0.00	17.51	7.290	5.10054	7.14856	0.0
7.0775	85.1312	-1.19	0.12	0.00	17.51	7.290	5.09805	7.15034	0.0
7.0975	85.1312	-1.19	0.12	0.00	17.51	7.290	5.09555	7.15212	2.0
7.1175	85.1312	-1.19	0.12	0.00	17.51	7.290	5.09305	7.15389	4.0
7.1375	85.1312	-1.19	0.12	0.00	17.51	7.290	5.09056	7.15567	4.0
7.1575	85.1312	-1.19	0.12	0.00	17.51	7.290	5.08806	7.15745	0.0
7.1775	85.1312	-1.19	0.12	0.00	17.51	7.290	5.08556	7.15922	2.0
7.1975	85.1312	-1.19	0.12	0.00	17.51	7.290	5.08306	7.16100	0.0
7.2175	85.1312	-1.19	0.12	0.00	17.51	7.290	5.08056	7.16277	2.0
7.2375	85.1312	-1.19	0.12	0.00	17.51	7.290	5.07806	7.16455	2.0
7.2575	85.1312	-1.19	0.12	0.00	17.51	7.290	5.07556	7.16632	0.0
7.2775	85.1312	-1.19	0.12	0.00	17.51	7.290	5.07306	7.16809	2.0
7.2975	85.1312	-1.19	0.12	0.00	17.51	7.290	5.07055	7.16986	4.0
7.3175	85.1312	-1.19	0.12	0.00	17.51	7.290	5.06805	7.17163	2.0
7.3375	85.1312	-1.19	0.12	0.00	17.51	7.290	5.06555	7.17340	0.0
7.3575	85.1312	-1.19	0.12	0.00	17.51	7.290	5.06304	7.17517	4.0
7.3775	85.1312	-1.19	0.12	0.00	17.51	7.290	5.06054	7.17693	2.0
7.3975	85.1312	-1.19	0.12	0.00	17.51	7.290	5.05803	7.17870	6.0
7.4175	85.1312	-1.19	0.12	0.00	17.51	7.290	5.05553	7.18046	6.0
7.4375	85.1312	-1.19	0.12	0.00	17.51	7.290	5.05302	7.18223	2.0
7.4575	85.1312	-1.19	0.12	0.00	17.51	7.290	5.05051	7.18399	2.0
7.4775	85.1312	-1.19	0.12	0.00	17.51	7.290	5.04800	7.18575	0.0
7.4975	85.1312	-1.19	0.12	0.00	17.51	7.290	5.04549	7.18752	0.0
7.5175	85.1312	-1.19	0.12	0.00	17.51	7.290	5.04299	7.18928	2.0
7.5375	85.1312	-1.19	0.12	0.00	17.51	7.290	5.04048	7.19104	4.0
7.5575	85.1312	-1.19	0.12	0.00	17.51	7.290	5.03797	7.19280	0.0
7.5775	85.1312	-1.19	0.12	0.00	17.51	7.290	5.03545	7.19455	0.0
7.5975	85.1312	-1.19	0.12	0.00	17.51	7.290	5.03294	7.19631	0.0
7.6175	85.1312	-1.19	0.12	0.00	17.51	7.290	5.03043	7.19807	0.0
7.6375	85.1312	-1.19	0.12	0.00	17.51	7.290	5.02792	7.19982	4.0
7.6575	85.1312	-1.19	0.12	0.00	17.51	7.290	5.02540	7.20158	4.0
7.6775	85.1312	-1.19	0.12	0.00	17.51	7.290	5.02289	7.20333	0.0
7.6975	85.1312	-1.19	0.12	0.00	17.51	7.290	5.02037	7.20508	0.0
7.7175	85.1312	-1.19	0.12	0.00	17.51	7.290	5.01786	7.20684	2.0
7.7375	85.1312	-1.19	0.12	0.00	17.51	7.290	5.01534	7.20859	0.0
7.7575	85.1312	-1.19	0.12	0.00	17.51	7.290	5.01283	7.21034	2.0
7.7775	85.1312	-1.19	0.12	0.00	17.51	7.290	5.01031	7.21209	2.0
7.7975	85.1312	-1.19	0.12	0.00	17.51	7.290	5.00779	7.21384	2.0
7.8175	85.1312	-1.19	0.12	0.00	17.51	7.290	5.00527	7.21558	2.0
7.8375	85.1312	-1.19	0.12	0.00	17.51	7.290	5.00275	7.21733	4.0
7.8575	85.1312	-1.19	0.12	0.00	17.51	7.290	5.00023	7.21908	0.0
7.8775	85.1312	-1.19	0.12	0.00	17.51	7.290	4.99771	7.22082	0.0
7.8975	85.1312	-1.19	0.12	0.00	17.51	7.290	4.99519	7.22256	4.0
7.9175	85.1312	-1.19	0.12	0.00	17.51	7.290	4.99267	7.22431	0.0
7.9375	85.1312	-1.19	0.12	0.00	17.51	7.290	4.99015	7.22605	0.0
7.9575	85.1312	-1.19	0.12	0.00	17.51	7.290	4.98763	7.22779	2.0
7.9775	85.1312	-1.19	0.12	0.00	17.51	7.290	4.98510	7.22953	0.0
7.9975	85.1312	-1.19	0.12	0.00	17.51	7.290	4.98258	7.23127	2.0
8.0175	85.1312	-1.19	0.12	0.00	17.51	7.290	4.98006	7.23301	0.0
8.0375	85.1312	-1.19	0.12	0.00	17.51	7.290	4.97753	7.23475	2.0
8.0575	85.1312	-1.19	0.12	0.00	17.51	7.290	4.97501	7.23649	0.0
8.0775	85.1312	-1.19	0.12	0.00	17.51	7.290	4.97248	7.23822	2.0
8.0975	85.1312	-1.19	0.12	0.00	17.51	7.290	4.96995	7.23996	0.0
8.1175	85.1312	-1.19	0.12	0.00	17.51	7.290	4.96742	7.24169	6.0
8.1375	85.1312	-1.19	0.12	0.00	17.51	7.290	4.96490	7.24342	0.0
8.1575	85.1312	-1.19	0.12	0.00	17.51	7.290	4.96237	7.24516	4.0
8.1775	85.1312	-1.19	0.12	0.00	17.51	7.290	4.95984	7.24689	0.0
8.1975	85.1312	-1.19	0.12	0.00	17.51	7.290	4.95731	7.24862	4.0
8.2175	85.1312	-1.19	0.12	0.00	17.51	7.290	4.95478	7.25035	4.0
8.2375	85.1312	-1.19	0.12	0.00	17.51	7.290	4.95225	7.25208	6.0
8.2575	85.1312	-1.19	0.12	0.00	17.51	7.290	4.94971	7.25381	0.0
8.2775	85.1312	-1.19	0.12	0.00	17.51	7.290	4.94718	7.25553	0.0
8.2975	85.1312	-1.19	0.12	0.00	17.51	7.290	4.94465	7.25726	0.0
8.3175	85.1312	-1.19	0.12	0.00	17.51	7.290	4.94212	7.25899	2.0
8.3375	85.1312	-1.19	0.12	0.00	17.51	7.290	4.93958	7.26071	2.0
8.3575	85.1312	-1.19	0.12	0.00	17.51	7.290	4.93705	7.26244	0.0
8.3775	85.1312	-1.19	0.12	0.00	17.51	7.290	4.93451	7.26416	2.0
8.3975	85.1312	-1.19	0.12	0.00	17.51	7.290	4.93198	7.26588	0.0
8.4175	85.1312	-1.19	0.12	0.00	17.51	7.290	4.92944	7.26760	0.0
8.4375	85.1312	-1.19	0.12	0.00	17.51	7.290	4.92690	7.26932	0.0
8.4575	85.1312	-1.19	0.12	0.00	17.51	7.290	4.92436	7.27104	0.0
8.4775	85.1312	-1.19	0.12	0.00	17.51	7.290	4.92183	7.27276	0.0
8.4975	85.1312	-1.19	0.12	0.00	17.51	7.290	4.91929	7.27448	0.0
8.5175	85.1312	-1.19	0.12	0.00	17.51	7.290	4.91675	7.27619	0.0
8.5375	85.1312	-1.19	0.12	0.00	17.51	7.290	4.91421	7.27791	0.0
8.5575	85.1312	-1.19	0.12	0.00	17.51	7.290	4.91167	7.27962	0.0
8.5775	85.1312	-1.19	0.12	0.00	17.51	7.290	4.90912	7.28134	0.0
8.5975	85.1312	-1.19	0.12	0.00	17.51	7.290	4.90658	7.28305	0.0

6.6075	85.1512	-1.19	0.12	0.00	17.51	7.290	5.15875	7.10873	2.0
6.6275	85.1512	-1.19	0.12	0.00	17.51	7.290	5.15627	7.11053	2.0
6.6475	85.1512	-1.19	0.12	0.00	17.51	7.290	5.15378	7.11233	2.0
6.6675	85.1512	-1.19	0.12	0.00	17.51	7.290	5.15130	7.11413	2.0
6.6875	85.1512	-1.19	0.12	0.00	17.51	7.290	5.14882	7.11592	0.0
6.7075	85.1512	-1.19	0.12	0.00	17.51	7.290	5.14633	7.11772	4.0
6.7275	85.1512	-1.19	0.12	0.00	17.51	7.290	5.14385	7.11952	0.0
6.7475	85.1512	-1.19	0.12	0.00	17.51	7.290	5.14136	7.12131	2.0
6.7675	85.1512	-1.19	0.12	0.00	17.51	7.290	5.13888	7.12311	0.0
6.7875	85.1512	-1.19	0.12	0.00	17.51	7.290	5.13639	7.12490	2.0
6.8075	85.1512	-1.19	0.12	0.00	17.51	7.290	5.13390	7.12669	2.0
6.8275	85.1512	-1.19	0.12	0.00	17.51	7.290	5.13142	7.12848	0.0
6.8475	85.1512	-1.19	0.12	0.00	17.51	7.290	5.12893	7.13027	2.0
6.8675	85.1512	-1.19	0.12	0.00	17.51	7.290	5.12644	7.13206	0.0
6.8875	85.1512	-1.19	0.12	0.00	17.51	7.290	5.12395	7.13385	0.0
6.9075	85.1512	-1.19	0.12	0.00	17.51	7.290	5.12146	7.13564	2.0
6.9275	85.1512	-1.19	0.12	0.00	17.51	7.290	5.11897	7.13743	2.0
6.9475	85.1512	-1.19	0.12	0.00	17.51	7.290	5.11647	7.13922	2.0
6.9675	85.1512	-1.19	0.12	0.00	17.51	7.290	5.11398	7.14100	2.0
6.9875	85.1512	-1.19	0.12	0.00	17.51	7.290	5.11149	7.14279	0.0
7.0075	85.1512	-1.19	0.12	0.00	17.51	7.290	5.10900	7.14457	0.0
7.0275	85.1512	-1.19	0.12	0.00	17.51	7.290	5.10650	7.14635	0.0
7.0475	85.1512	-1.19	0.12	0.00	17.51	7.290	5.10401	7.14813	0.0
7.0675	85.1512	-1.19	0.12	0.00	17.51	7.290	5.10151	7.14992	8.0
7.0875	85.1512	-1.19	0.12	0.00	17.51	7.290	5.09901	7.15170	0.0
7.1075	85.1512	-1.19	0.12	0.00	17.51	7.290	5.09652	7.15348	0.0
7.1275	85.1512	-1.19	0.12	0.00	17.51	7.290	5.09402	7.15525	2.0
7.1475	85.1512	-1.19	0.12	0.00	17.51	7.290	5.09152	7.15703	4.0
7.1675	85.1512	-1.19	0.12	0.00	17.51	7.290	5.08902	7.15881	0.0
7.1875	85.1512	-1.19	0.12	0.00	17.51	7.290	5.08652	7.16058	0.0
7.2075	85.1512	-1.19	0.12	0.00	17.51	7.290	5.08402	7.16236	2.0
7.2275	85.1512	-1.19	0.12	0.00	17.51	7.290	5.08152	7.16413	0.0
7.2475	85.1512	-1.19	0.12	0.00	17.51	7.290	5.07902	7.16591	0.0
7.2675	85.1512	-1.19	0.12	0.00	17.51	7.290	5.07652	7.16768	4.0
7.2875	85.1512	-1.19	0.12	0.00	17.51	7.290	5.07402	7.16945	2.0
7.3075	85.1512	-1.19	0.12	0.00	17.51	7.290	5.07152	7.17122	2.0
7.3275	85.1512	-1.19	0.12	0.00	17.51	7.290	5.06901	7.17299	2.0
7.3475	85.1512	-1.19	0.12	0.00	17.51	7.290	5.06651	7.17476	0.0
7.3675	85.1512	-1.19	0.12	0.00	17.51	7.290	5.06400	7.17653	0.0
7.3875	85.1512	-1.19	0.12	0.00	17.51	7.290	5.06150	7.17830	4.0
7.4075	85.1512	-1.19	0.12	0.00	17.51	7.290	5.05899	7.18006	0.0
7.4275	85.1512	-1.19	0.12	0.00	17.51	7.290	5.05649	7.18183	4.0
7.4475	85.1512	-1.19	0.12	0.00	17.51	7.290	5.05398	7.18359	0.0
7.4675	85.1512	-1.19	0.12	0.00	17.51	7.290	5.05147	7.18536	0.0
7.4875	85.1512	-1.19	0.12	0.00	17.51	7.290	5.04896	7.18712	0.0
7.5075	85.1512	-1.19	0.12	0.00	17.51	7.290	5.04645	7.18888	2.0
7.5275	85.1512	-1.19	0.12	0.00	17.51	7.290	5.04394	7.19064	0.0
7.5475	85.1512	-1.19	0.12	0.00	17.51	7.290	5.04143	7.19240	0.0
7.5675	85.1512	-1.19	0.12	0.00	17.51	7.290	5.03892	7.19416	0.0
7.5875	85.1512	-1.19	0.12	0.00	17.51	7.290	5.03641	7.19592	0.0
7.6075	85.1512	-1.19	0.12	0.00	17.51	7.290	5.03390	7.19768	2.0
7.6275	85.1512	-1.19	0.12	0.00	17.51	7.290	5.03139	7.19943	10.0
7.6475	85.1512	-1.19	0.12	0.00	17.51	7.290	5.02887	7.20119	4.0
7.6675	85.1512	-1.19	0.12	0.00	17.51	7.290	5.02636	7.20295	2.0
7.6875	85.1512	-1.19	0.12	0.00	17.51	7.290	5.02384	7.20470	0.0
7.7075	85.1512	-1.19	0.12	0.00	17.51	7.290	5.02133	7.20645	8.0
7.7275	85.1512	-1.19	0.12	0.00	17.51	7.290	5.01881	7.20821	4.0
7.7475	85.1512	-1.19	0.12	0.00	17.51	7.290	5.01630	7.20996	0.0
7.7675	85.1512	-1.19	0.12	0.00	17.51	7.290	5.01378	7.21171	2.0
7.7875	85.1512	-1.19	0.12	0.00	17.51	7.290	5.01126	7.21346	0.0
7.8075	85.1512	-1.19	0.12	0.00	17.51	7.290	5.00874	7.21521	2.0
7.8275	85.1512	-1.19	0.12	0.00	17.51	7.290	5.00622	7.21695	0.0
7.8475	85.1512	-1.19	0.12	0.00	17.51	7.290	5.00371	7.21870	0.0
7.8675	85.1512	-1.19	0.12	0.00	17.51	7.290	5.00118	7.22045	2.0
7.8875	85.1512	-1.19	0.12	0.00	17.51	7.290	4.99866	7.22219	0.0
7.9075	85.1512	-1.19	0.12	0.00	17.51	7.290	4.99614	7.22394	2.0
7.9275	85.1512	-1.19	0.12	0.00	17.51	7.290	4.99362	7.22568	2.0
7.9475	85.1512	-1.19	0.12	0.00	17.51	7.290	4.99110	7.22742	0.0
7.9675	85.1512	-1.19	0.12	0.00	17.51	7.290	4.98858	7.22916	2.0
7.9875	85.1512	-1.19	0.12	0.00	17.51	7.290	4.98605	7.23091	2.0
8.0075	85.1512	-1.19	0.12	0.00	17.51	7.290	4.98353	7.23265	6.0
8.0275	85.1512	-1.19	0.12	0.00	17.51	7.290	4.98100	7.23438	0.0
8.0475	85.1512	-1.19	0.12	0.00	17.51	7.290	4.97848	7.23612	0.0
8.0675	85.1512	-1.19	0.12	0.00	17.51	7.290	4.97595	7.23786	4.0
8.0875	85.1512	-1.19	0.12	0.00	17.51	7.290	4.97342	7.23960	0.0
8.1075	85.1512	-1.19	0.12	0.00	17.51	7.290	4.97090	7.24133	0.0
8.1275	85.1512	-1.19	0.12	0.00	17.51	7.290	4.96837	7.24307	2.0
8.1475	85.1512	-1.19	0.12	0.00	17.51	7.290	4.96584	7.24480	0.0
8.1675	85.1512	-1.19	0.12	0.00	17.51	7.290	4.96331	7.24653	2.0
8.1875	85.1512	-1.19	0.12	0.00	17.51	7.290	4.96078	7.24827	0.0
8.2075	85.1512	-1.19	0.12	0.00	17.51	7.290	4.95825	7.25000	2.0
8.2275	85.1512	-1.19	0.12	0.00	17.51	7.290	4.95572	7.25173	0.0
8.2475	85.1512	-1.19	0.12	0.00	17.51	7.290	4.95319	7.25346	2.0
8.2675	85.1512	-1.19	0.12	0.00	17.51	7.290	4.95066	7.25519	2.0
8.2875	85.1512	-1.19	0.12	0.00	17.51	7.290	4.94812	7.25691	4.0
8.3075	85.1512	-1.19	0.12	0.00	17.51	7.290	4.94559	7.25864	2.0
8.3275	85.1512	-1.19	0.12	0.00	17.51	7.290	4.94305	7.26037	0.0
8.3475	85.1512	-1.19	0.12	0.00	17.51	7.290	4.94052	7.26209	0.0
8.3675	85.1512	-1.19	0.12	0.00	17.51	7.290	4.93798	7.26382	2.0
8.3875	85.1512	-1.19	0.12	0.00	17.51	7.290	4.93545	7.26554	0.0
8.4075	85.1512	-1.19	0.12	0.00	17.51	7.290	4.93291	7.26726	0.0
8.4275	85.1512	-1.19	0.12	0.00	17.51	7.290	4.93038	7.26898	0.0
8.4475	85.1512	-1.19	0.12	0.00	17.51	7.290	4.92784	7.27070	0.0
8.4675	85.1512	-1.19	0.12	0.00	17.51	7.290	4.92530	7.27242	2.0
8.4875	85.1512	-1.19	0.12	0.00	17.51	7.290	4.92276	7.27414	0.0
8.5075	85.1512	-1.19	0.12	0.00	17.51	7.290	4.92022	7.27586	0.0
8.5275	85.1512	-1.19	0.12	0.00	17.51	7.290	4.91768	7.27758	0.0
8.5475	85.1512	-1.19	0.12	0.00	17.51	7.290	4.91514	7.27929	0.0
8.5675	85.1512	-1.19	0.12	0.00	17.51	7.290	4.91260	7.28101	0.0
8.5875	85.1512	-1.19	0.12	0.00	17.51	7.290	4.91006	7.28272	0.0
8.6075	85.1512	-1.19	0.12	0.00	17.51	7.290	4.90752	7.28444	2.0

6.6175	85.1712	-1.19	0.12	0.00	17.51	7.290	5.15973	7.11008	0.0
6.6375	85.1712	-1.19	0.12	0.00	17.51	7.290	5.15725	7.11188	0.0
6.6575	85.1712	-1.19	0.12	0.00	17.51	7.290	5.15476	7.11368	0.0
6.6775	85.1712	-1.19	0.12	0.00	17.51	7.290	5.15228	7.11548	4.0
6.6975	85.1712	-1.19	0.12	0.00	17.51	7.290	5.14980	7.11728	4.0
6.7175	85.1712	-1.19	0.12	0.00	17.51	7.290	5.14731	7.11907	0.0
6.7375	85.1712	-1.19	0.12	0.00	17.51	7.290	5.14483	7.12087	2.0
6.7575	85.1712	-1.19	0.12	0.00	17.51	7.290	5.14234	7.12266	0.0
6.7775	85.1712	-1.19	0.12	0.00	17.51	7.290	5.13985	7.12446	0.0
6.7975	85.1712	-1.19	0.12	0.00	17.51	7.290	5.13737	7.12625	2.0
6.8175	85.1712	-1.19	0.12	0.00	17.51	7.290	5.13488	7.12805	0.0
6.8375	85.1712	-1.19	0.12	0.00	17.51	7.290	5.13239	7.12984	2.0
6.8575	85.1712	-1.19	0.12	0.00	17.51	7.290	5.12990	7.13163	0.0
6.8775	85.1712	-1.19	0.12	0.00	17.51	7.290	5.12741	7.13342	0.0
6.8975	85.1712	-1.19	0.12	0.00	17.51	7.290	5.12492	7.13521	2.0
6.9175	85.1712	-1.19	0.12	0.00	17.51	7.290	5.12243	7.13700	0.0
6.9375	85.1712	-1.19	0.12	0.00	17.51	7.290	5.11994	7.13878	0.0
6.9575	85.1712	-1.19	0.12	0.00	17.51	7.290	5.11745	7.14057	2.0
6.9775	85.1712	-1.19	0.12	0.00	17.51	7.290	5.11495	7.14236	2.0
6.9975	85.1712	-1.19	0.12	0.00	17.51	7.290	5.11246	7.14414	0.0
7.0175	85.1712	-1.19	0.12	0.00	17.51	7.290	5.10997	7.14593	0.0
7.0375	85.1712	-1.19	0.12	0.00	17.51	7.290	5.10747	7.14771	0.0
7.0575	85.1712	-1.19	0.12	0.00	17.51	7.290	5.10498	7.14949	2.0
7.0775	85.1712	-1.19	0.12	0.00	17.51	7.290	5.10248	7.15127	0.0
[...]
10.2875	88.9512	-1.19	0.12	0.00	17.51	7.290	5.11084	7.52373	4.0
10.3075	88.9512	-1.19	0.12	0.00	17.51	7.290	5.10821	7.52552	6.0
10.3275	88.9512	-1.19	0.12	0.00	17.51	7.290	5.10559	7.52730	2.0
10.3475	88.9512	-1.19	0.12	0.00	17.51	7.290	5.10296	7.52908	0.0
10.3675	88.9512	-1.19	0.12	0.00	17.51	7.290	5.10033	7.53086	4.0
10.3875	88.9512	-1.19	0.12	0.00	17.51	7.290	5.09770	7.53264	0.0
10.4075	88.9512	-1.19	0.12	0.00	17.51	7.290	5.09507	7.53442	4.0
10.4275	88.9512	-1.19	0.12	0.00	17.51	7.290	5.09244	7.53620	0.0
10.4475	88.9512	-1.19	0.12	0.00	17.51	7.290	5.08981	7.53798	2.0
10.4675	88.9512	-1.19	0.12	0.00	17.51	7.290	5.08718	7.53975	0.0
10.4875	88.9512	-1.19	0.12	0.00	17.51	7.290	5.08455	7.54153	0.0
10.5075	88.9512	-1.19	0.12	0.00	17.51	7.290	5.08191	7.54330	8.0

8.5175	88.9712	-1.19	0.12	0.00	17.51	7.290	5.34302	7.36266	0.0
8.5375	88.9712	-1.19	0.12	0.00	17.51	7.290	5.34045	7.36452	4.0
8.5575	88.9712	-1.19	0.12	0.00	17.51	7.290	5.33788	7.36639	0.0
8.5775	88.9712	-1.19	0.12	0.00	17.51	7.290	5.33531	7.36825	2.0
8.5975	88.9712	-1.19	0.12	0.00	17.51	7.290	5.33274	7.37011	0.0
8.6175	88.9712	-1.19	0.12	0.00	17.51	7.290	5.33017	7.37197	0.0
8.6375	88.9712	-1.19	0.12	0.00	17.51	7.290	5.32759	7.37383	0.0
8.6575	88.9712	-1.19	0.12	0.00	17.51	7.290	5.32502	7.37569	0.0
8.6775	88.9712	-1.19	0.12	0.00	17.51	7.290	5.32244	7.37755	2.0
8.6975	88.9712	-1.19	0.12	0.00	17.51	7.290	5.31987	7.37941	0.0
8.7175	88.9712	-1.19	0.12	0.00	17.51	7.290	5.31729	7.38127	0.0
8.7375	88.9712	-1.19	0.12	0.00	17.51	7.290	5.31472	7.38312	2.0
8.7575	88.9712	-1.19	0.12	0.00	17.51	7.290	5.31214	7.38498	0.0
8.7775	88.9712	-1.19	0.12	0.00	17.51	7.290	5.30956	7.38683	2.0
8.7975	88.9712	-1.19	0.12	0.00	17.51	7.290	5.30698	7.38868	2.0
8.8175	88.9712	-1.19	0.12	0.00	17.51	7.290	5.30440	7.39053	0.0
8.8375	88.9712	-1.19	0.12	0.00	17.51	7.290	5.30182	7.39239	0.0
8.8575	88.9712	-1.19	0.12	0.00	17.51	7.290	5.29924	7.39424	0.0
8.8775	88.9712	-1.19	0.12	0.00	17.51	7.290	5.29666	7.39609	0.0
8.8975	88.9712	-1.19	0.12	0.00	17.51	7.290	5.29408	7.39793	0.0
8.9175	88.9712	-1.19	0.12	0.00	17.51	7.290	5.29149	7.39978	0.0
8.9375	88.9712	-1.19	0.12	0.00	17.51	7.290	5.28891	7.40163	2.0
8.9575	88.9712	-1.19	0.12	0.00	17.51	7.290	5.28633	7.40347	0.0
8.9775	88.9712	-1.19	0.12	0.00	17.51	7.290	5.28374	7.40532	4.0
8.9975	88.9712	-1.19	0.12	0.00	17.51	7.290	5.28116	7.40716	0.0
9.0175	88.9712	-1.19	0.12	0.00	17.51	7.290	5.27857	7.40901	0.0
9.0375	88.9712	-1.19	0.12	0.00	17.51	7.290	5.27598	7.41085	2.0
9.0575	88.9712	-1.19	0.12	0.00	17.51	7.290	5.27340	7.41269	0.0
9.0775	88.9712	-1.19	0.12	0.00	17.51	7.290	5.27081	7.41453	4.0
9.0975	88.9712	-1.19	0.12	0.00	17.51	7.290	5.26822	7.41637	0.0
9.1175	88.9712	-1.19	0.12	0.00	17.51	7.290	5.26563	7.41821	0.0
9.1375	88.9712	-1.19	0.12	0.00	17.51	7.290	5.26304	7.42004	2.0
9.1575	88.9712	-1.19	0.12	0.00	17.51	7.290	5.26045	7.42188	2.0
9.1775	88.9712	-1.19	0.12	0.00	17.51	7.290	5.25786	7.42372	0.0
9.1975	88.9712	-1.19	0.12	0.00	17.51	7.290	5.25527	7.42555	2.0
9.2175	88.9712	-1.19	0.12	0.00	17.51	7.290	5.25268	7.42739	0.0
9.2375	88.9712	-1.19	0.12	0.00	17.51	7.290	5.25008	7.42922	0.0
9.2575	88.9712	-1.19	0.12	0.00	17.51	7.290	5.24749	7.43105	4.0
9.2775	88.9712	-1.19	0.12	0.00	17.51	7.290	5.24490	7.43288	0.0
9.2975	88.9712	-1.19	0.12	0.00	17.51	7.290	5.24230	7.43471	0.0
9.3175	88.9712	-1.19	0.12	0.00	17.51	7.290	5.23971	7.43654	2.0
9.3375	88.9712	-1.19	0.12	0.00	17.51	7.290	5.23711	7.43837	4.0
9.3575	88.9712	-1.19	0.12	0.00	17.51	7.290	5.23451	7.44020	0.0
9.3775	88.9712	-1.19	0.12	0.00	17.51	7.290	5.23191	7.44203	0.0
9.3975	88.9712	-1.19	0.12	0.00	17.51	7.290	5.22932	7.44385	0.0
9.4175	88.9712	-1.19	0.12	0.00	17.51	7.290	5.22672	7.44568	2.0
9.4375	88.9712	-1.19	0.12	0.00	17.51	7.290	5.22412	7.44750	2.0
9.4575	88.9712	-1.19	0.12	0.00	17.51	7.290	5.22152	7.44932	0.0
9.4775	88.9712	-1.19	0.12	0.00	17.51	7.290	5.21892	7.45115	2.0
9.4975	88.9712	-1.19	0.12	0.00	17.51	7.290	5.21632	7.45297	0.0
9.5175	88.9712	-1.19	0.12	0.00	17.51	7.290	5.21372	7.45479	0.0
9.5375	88.9712	-1.19	0.12	0.00	17.51	7.290	5.21111	7.45661	0.0
9.5575	88.9712	-1.19	0.12	0.00	17.51	7.290	5.20851	7.45843	0.0
9.5775	88.9712	-1.19	0.12	0.00	17.51	7.290	5.20591	7.46024	2.0
9.5975	88.9712	-1.19	0.12	0.00	17.51	7.290	5.20330	7.46206	0.0
9.6175	88.9712	-1.19	0.12	0.00	17.51	7.290	5.20070	7.46388	0.0
9.6375	88.9712	-1.19	0.12	0.00	17.51	7.290	5.19809	7.46569	2.0
9.6575	88.9712	-1.19	0.12	0.00	17.51	7.290	5.19548	7.46750	2.0
9.6775	88.9712	-1.19	0.12	0.00	17.51	7.290	5.19288	7.46932	0.0
9.6975	88.9712	-1.19	0.12	0.00	17.51	7.290	5.19027	7.47113	0.0
9.7175	88.9712	-1.19	0.12	0.00	17.51	7.290	5.18766	7.47294	0.0
9.7375	88.9712	-1.19	0.12	0.00	17.51	7.290	5.18505	7.47475	4.0
9.7575	88.9712	-1.19	0.12	0.00	17.51	7.290	5.18244	7.47656	0.0
9.7775	88.9712	-1.19	0.12	0.00	17.51	7.290	5.17983	7.47837	0.0
9.7975	88.9712	-1.19	0.12	0.00	17.51	7.290	5.17722	7.48018	0.0
9.8175	88.9712	-1.19	0.12	0.00	17.51	7.290	5.17461	7.48198	2.0
9.8375	88.9712	-1.19	0.12	0.00	17.51	7.290	5.17200	7.48379	2.0
9.8575	88.9712	-1.19	0.12	0.00	17.51	7.290	5.16939	7.48559	0.0
9.8775	88.9712	-1.19	0.12	0.00	17.51	7.290	5.16677	7.48740	2.0
9.8975	88.9712	-1.19	0.12	0.00	17.51	7.290	5.16416	7.48920	2.0
9.9175	88.9712	-1.19	0.12	0.00	17.51	7.290	5.16154	7.49100	4.0
9.9375	88.9712	-1.19	0.12	0.00	17.51	7.290	5.15893	7.49280	2.0
9.9575	88.9712	-1.19	0.12	0.00	17.51	7.290	5.15631	7.49461	0.0
9.9775	88.9712	-1.19	0.12	0.00	17.51	7.290	5.15370	7.49640	0.0
9.9975	88.9712	-1.19	0.12	0.00	17.51	7.290	5.15108	7.49820	2.0
10.0175	88.9712	-1.19	0.12	0.00	17.51	7.290	5.14846	7.50000	0.0
10.0375	88.9712	-1.19	0.12	0.00	17.51	7.290	5.14584	7.50180	0.0
10.0575	88.9712	-1.19	0.12	0.00	17.51	7.290	5.14322	7.50359	0.0
10.0775	88.9712	-1.19	0.12	0.00	17.51	7.290	5.14061	7.50539	0.0
10.0975	88.9712	-1.19	0.12	0.00	17.51	7.290	5.13799	7.50718	4.0
10.1175	88.9712	-1.19	0.12	0.00	17.51	7.290	5.13536	7.50898	0.0
10.1375	88.9712	-1.19	0.12	0.00	17.51	7.290	5.13274	7.51077	2.0
10.1575	88.9712	-1.19	0.12	0.00	17.51	7.290	5.13012	7.51256	0.0
10.1775	88.9712	-1.19	0.12	0.00	17.51	7.290	5.12750	7.51435	0.0
10.1975	88.9712	-1.19	0.12	0.00	17.51	7.290	5.12487	7.51614	2.0
10.2175	88.9712	-1.19	0.12	0.00	17.51	7.290	5.12225	7.51793	0.0
10.2375	88.9712	-1.19	0.12	0.00	17.51	7.290	5.11963	7.51971	0.0
10.2575	88.9712	-1.19	0.12	0.00	17.51	7.290	5.11700	7.52150	0.0
10.2775	88.9712	-1.19	0.12	0.00	17.51	7.290	5.11438	7.52329	0.0
10.2975	88.9712	-1.19	0.12	0.00	17.51	7.290	5.11175	7.52507	0.0
10.3175	88.9712	-1.19	0.12	0.00	17.51	7.290	5.10912	7.52686	0.0
10.3375	88.9712	-1.19	0.12	0.00	17.51	7.290	5.10649	7.52864	0.0
10.3575	88.9712	-1.19	0.12	0.00	17.51	7.290	5.10387	7.53042	0.0
10.3775	88.9712	-1.19	0.12	0.00	17.51	7.290	5.10124	7.53220	2.0
10.3975	88.9712	-1.19	0.12	0.00	17.51	7.290	5.09861	7.53398	0.0
10.4175	88.9712	-1.19	0.12	0.00	17.51	7.290	5.09598	7.53576	2.0
10.4375	88.9712	-1.19	0.12	0.00	17.51	7.290	5.09335	7.53754	4.0
10.4575	88.9712	-1.19	0.12	0.00	17.51	7.290	5.09071	7.53932	4.0
10.4775	88.9712	-1.19	0.12	0.00	17.51	7.290	5.08808	7.54109	0.0
10.4975	88.9712	-1.19	0.12	0.00	17.51	7.290	5.08545	7.54287	0.0
10.5175	88.9712	-1.19	0.12	0.00	17.51	7.290	5.08282	7.54464	2.0

8.5275	88.9912	-1.19	0.12	0.00	17.51	7.290	5.34397	7.36397	0.0
8.5475	88.9912	-1.19	0.12	0.00	17.51	7.290	5.34140	7.36583	0.0
8.5675	88.9912	-1.19	0.12	0.00	17.51	7.290	5.33883	7.36770	0.0
8.5875	88.9912	-1.19	0.12	0.00	17.51	7.290	5.33626	7.36956	0.0
8.6075	88.9912	-1.19	0.12	0.00	17.51	7.290	5.33369	7.37142	2.0
8.6275	88.9912	-1.19	0.12	0.00	17.51	7.290	5.33111	7.37328	0.0
8.6475	88.9912	-1.19	0.12	0.00	17.51	7.290	5.32854	7.37514	0.0
8.6675	88.9912	-1.19	0.12	0.00	17.51	7.290	5.32596	7.37700	2.0
8.6875	88.9912	-1.19	0.12	0.00	17.51	7.290	5.32339	7.37886	2.0
8.7075	88.9912	-1.19	0.12	0.00	17.51	7.290	5.32081	7.38072	2.0
8.7275	88.9912	-1.19	0.12	0.00	17.51	7.290	5.31824	7.38258	0.0
8.7475	88.9912	-1.19	0.12	0.00	17.51	7.290	5.31566	7.38443	0.0
8.7675	88.9912	-1.19	0.12	0.00	17.51	7.290	5.31308	7.38629	0.0
8.7875	88.9912	-1.19	0.12	0.00	17.51	7.290	5.31050	7.38814	0.0
8.8075	88.9912	-1.19	0.12	0.00	17.51	7.290	5.30792	7.39000	0.0
8.8275	88.9912	-1.19	0.12	0.00	17.51	7.290	5.30534	7.39185	0.0
8.8475	88.9912	-1.19	0.12	0.00	17.51	7.290	5.30276	7.39370	4.0
8.8675	88.9912	-1.19	0.12	0.00	17.51	7.290	5.30018	7.39555	2.0
8.8875	88.9912	-1.19	0.12	0.00	17.51	7.290	5.29760	7.39740	0.0
8.9075	88.9912	-1.19	0.12	0.00	17.51	7.290	5.29502	7.39925	2.0
8.9275	88.9912	-1.19	0.12	0.00	17.51	7.290	5.29243	7.40110	0.0
8.9475	88.9912	-1.19	0.12	0.00	17.51	7.290	5.28985	7.40294	0.0
8.9675	88.9912	-1.19	0.12	0.00	17.51	7.290	5.28727	7.40479	0.0
8.9875	88.9912	-1.19	0.12	0.00	17.51	7.290	5.28468	7.40663	2.0
9.0075	88.9912	-1.19	0.12	0.00	17.51	7.290	5.28210	7.40848	0.0
9.0275	88.9912	-1.19	0.12	0.00	17.51	7.290	5.27951	7.41032	2.0
9.0475	88.9912	-1.19	0.12	0.00	17.51	7.290	5.27692	7.41216	2.0
9.0675	88.9912	-1.19	0.12	0.00	17.51	7.290	5.27433	7.41401	4.0
9.0875	88.9912	-1.19	0.12	0.00	17.51	7.290	5.27175	7.41585	2.0
9.1075	88.9912	-1.19	0.12	0.00	17.51	7.290	5.26916	7.41769	4.0
9.1275	88.9912	-1.19	0.12	0.00	17.51	7.290	5.26657	7.41953	0.0
9.1475	88.9912	-1.19	0.12	0.00	17.51	7.290	5.26398	7.42136	4.0
9.1675	88.9912	-1.19	0.12	0.00	17.51	7.290	5.26139	7.42320	6.0
9.1875	88.9912	-1.19	0.12	0.00	17.51	7.290	5.25879	7.42504	2.0
9.2075	88.9912	-1.19	0.12	0.00	17.51	7.290	5.25620	7.42687	0.0
9.2275	88.9912	-1.19	0.12	0.00	17.51	7.290	5.25361	7.42871	4.0
9.2475	88.9912	-1.19	0.12	0.00	17.51	7.290	5.25102	7.43054	2.0
9.2675	88.9912	-1.19	0.12	0.00	17.51	7.290	5.24842	7.43237	2.0
9.2875	88.9912	-1.19	0.12	0.00	17.51	7.290	5.24583	7.43420	0.0
9.3075	88.9912	-1.19	0.12	0.00	17.51	7.290	5.24323	7.43603	2.0
9.3275	88.9912	-1.19	0.12	0.00	17.51	7.290	5.24064	7.43786	0.0
9.3475	88.9912	-1.19	0.12	0.00	17.51	7.290	5.23804	7.43969	0.0
9.3675	88.9912	-1.19	0.12	0.00	17.51	7.290	5.23544	7.44152	0.0
9.3875	88.9912	-1.19	0.12	0.00	17.51	7.290	5.23284	7.44335	2.0
9.4075	88.9912	-1.19	0.12	0.00	17.51	7.290	5.23025	7.44517	0.0
9.4275	88.9912	-1.19	0.12	0.00	17.51	7.290	5.22765	7.44700	4.0
9.4475	88.9912	-1.19	0.12	0.00	17.51	7.290	5.22505	7.44882	2.0
9.4675	88.9912	-1.19	0.12	0.00	17.51	7.290	5.22245	7.45065	0.0
9.4875	88.9912	-1.19	0.12	0.00	17.51	7.290	5.21985	7.45247	4.0
9.5075	88.9912	-1.19	0.12	0.00	17.51	7.290	5.21724	7.45429	2.0
9.5275	88.9912	-1.19	0.12	0.00	17.51	7.290	5.21464	7.45611	0.0
9.5475	88.9912	-1.19	0.12	0.00	17.51	7.290	5.21204	7.45793	2.0
9.5675	88.9912	-1.19	0.12	0.00	17.51	7.290	5.20943	7.45975	2.0
9.5875	88.9912	-1.19	0.12	0.00	17.51	7.290	5.20683	7.46157	4.0
9.6075	88.9912	-1.19	0.12	0.00	17.51	7.290	5.20423	7.46339	6.0
9.6275	88.9912	-1.19	0.12	0.00	17.51	7.290	5.20162	7.46520	2.0
9.6475	88.9912	-1.19	0.12	0.00	17.51	7.290	5.19901	7.46702	0.0
9.6675	88.9912	-1.19	0.12	0.00	17.51	7.290	5.19641	7.46883	4.0
9.6875	88.9912	-1.19	0.12	0.00	17.51	7.290	5.19380	7.47064	0.0
9.7075	88.9912	-1.19	0.12	0.00	17.51	7.290	5.19119	7.47246	0.0
9.7275	88.9912	-1.19	0.12	0.00	17.51	7.290	5.18858	7.47427	0.0
9.7475	88.9912	-1.19	0.12	0.00	17.51	7.290	5.18597	7.47608	0.0
9.7675	88.9912	-1.19	0.12	0.00	17.51	7.290	5.18336	7.47789	4.0
9.7875	88.9912	-1.19	0.12	0.00	17.51	7.290	5.18075	7.47970	0.0
9.8075	88.9912	-1.19	0.12	0.00	17.51	7.290	5.17814	7.48151	0.0
9.8275	88.9912	-1.19	0.12	0.00	17.51	7.290	5.17553	7.48331	0.0
9.8475	88.9912	-1.19	0.12	0.00	17.51	7.290	5.17292	7.48512	4.0
9.8675	88.9912	-1.19	0.12	0.00	17.51	7.290	5.17030	7.48692	2.0
9.8875	88.9912	-1.19	0.12	0.00	17.51	7.290	5.16769	7.48873	0.0
9.9075	88.9912	-1.19	0.12	0.00	17.51	7.290	5.16508	7.49053	2.0
9.9275	88.9912	-1.19	0.12	0.00	17.51	7.290	5.16246	7.49233	2.0
9.9475	88.9912	-1.19	0.12	0.00	17.51	7.290	5.15985	7.49414	2.0
9.9675	88.9912	-1.19	0.12	0.00	17.51	7.290	5.15723	7.49594	0.0
9.9875	88.9912	-1.19	0.12	0.00	17.51	7.290	5.15461	7.49774	2.0
10.0075	88.9912	-1.19	0.12	0.00	17.51	7.290	5.15199	7.49954	0.0
10.0275	88.9912	-1.19	0.12	0.00	17.51	7.290	5.14938	7.50133	2.0
10.0475	88.9912	-1.19	0.12	0.00	17.51	7.290	5.14676	7.50313	0.0
10.0675	88.9912	-1.19	0.12	0.00	17.51	7.290	5.14414	7.50493	2.0
10.0875	88.9912	-1.19	0.12	0.00	17.51	7.290	5.14152	7.50672	2.0
10.1075	88.9912	-1.19	0.12	0.00	17.51	7.290	5.13890	7.50852	2.0
10.1275	88.9912	-1.19	0.12	0.00	17.51	7.290	5.13628	7.51031	2.0
10.1475	88.9912	-1.19	0.12	0.00	17.51	7.290	5.13365	7.51210	2.0
10.1675	88.9912	-1.19	0.12	0.00	17.51	7.290	5.13103	7.51389	4.0
10.1875	88.9912	-1.19	0.12	0.00	17.51	7.290	5.12841	7.51568	0.0
10.2075	88.9912	-1.19	0.12	0.00	17.51	7.290	5.12579	7.51747	0.0
10.2275	88.9912	-1.19	0.12	0.00	17.51	7.290	5.12316	7.51926	0.0
10.2475	88.9912	-1.19	0.12	0.00	17.51	7.290	5.12054	7.52105	4.0
10.2675	88.9912	-1.19	0.12	0.00	17.51	7.290	5.11791	7.52284	0.0
10.2875	88.9912	-1.19	0.12	0.00	17.51	7.290	5.11528	7.52462	2.0
10.3075	88.9912	-1.19	0.12	0.00	17.51	7.290	5.11266	7.52641	2.0
10.3275	88.9912	-1.19	0.12	0.00	17.51	7.290	5.11003	7.52819	0.0
10.3475	88.9912	-1.19	0.12	0.00	17.51	7.290	5.10740	7.52998	2.0
10.3675	88.9912	-1.19	0.12	0.00	17.51	7.290	5.10477	7.53176	2.0
10.3875	88.9912	-1.19	0.12	0.00	17.51	7.290	5.10214	7.53354	0.0
10.4075	88.9912	-1.19	0.12	0.00	17.51	7.290	5.09951	7.53532	0.0
10.4275	88.9912	-1.19	0.12	0.00	17.51	7.290	5.09688	7.53710	0.0
10.4475	88.9912	-1.19	0.12	0.00	17.51	7.290	5.09425	7.53888	2.0
10.4675	88.9912	-1.19	0.12	0.00	17.51	7.290	5.09162	7.54066	0.0
10.4875	88.9912	-1.19	0.12	0.00	17.51	7.290	5.08899	7.54243	0.0
10.5075	88.9912	-1.19	0.12	0.00	17.51	7.290	5.08635	7.54421	2.0
10.5275	88.9912	-1.19	0.12	0.00	17.51	7.290	5.08372	7.54598	2.0

8.5375	89.0112	-1.19	0.12	0.00	17.51	7.290	5.34492	7.36528	2.0
8.5575	89.0112	-1.19	0.12	0.00	17.51	7.290	5.34235	7.36714	0.0
8.5775	89.0112	-1.19	0.12	0.00	17.51	7.290	5.33978	7.36901	0.0
8.5975	89.0112	-1.19	0.12	0.00	17.51	7.290	5.33721	7.37087	0.0
8.6175	89.0112	-1.19	0.12	0.00	17.51	7.290	5.33463	7.37273	0.0
8.6375	89.0112	-1.19	0.12	0.00	17.51	7.290	5.33206	7.37459	2.0
8.6575	89.0112	-1.19	0.12	0.00	17.51	7.290	5.32949	7.37645	2.0
8.6775	89.0112	-1.19	0.12	0.00	17.51	7.290	5.32691	7.37831	0.0
8.6975	89.0112	-1.19	0.12	0.00	17.51	7.290	5.32433	7.38017	4.0
8.7175	89.0112	-1.19	0.12	0.00	17.51	7.290	5.32176	7.38203	2.0
8.7375	89.0112	-1.19	0.12	0.00	17.51	7.290	5.31918	7.38389	6.0
8.7575	89.0112	-1.19	0.12	0.00	17.51	7.290	5.31660	7.38574	0.0
8.7775	89.0112	-1.19	0.12	0.00	17.51	7.290	5.31403	7.38760	0.0
8.7975	89.0112	-1.19	0.12	0.00	17.51	7.290	5.31145	7.38945	0.0
8.8175	89.0112	-1.19	0.12	0.00	17.51	7.290	5.30887	7.39131	2.0
8.8375	89.0112	-1.19	0.12	0.00	17.51	7.290	5.30629	7.39316	2.0
8.8575	89.0112	-1.19	0.12	0.00	17.51	7.290	5.30370	7.39501	2.0
8.8775	89.0112	-1.19	0.12	0.00	17.51	7.290	5.30112	7.39686	0.0
8.8975	89.0112	-1.19	0.12	0.00	17.51	7.290	5.29854	7.39871	0.0
8.9175	89.0112	-1.19	0.12	0.00	17.51	7.290	5.29596	7.40056	0.0
8.9375	89.0112	-1.19	0.12	0.00	17.51	7.290	5.29337	7.40241	4.0
8.9575	89.0112	-1.19	0.12	0.00	17.51	7.290	5.29079	7.40426	2.0
8.9775	89.0112	-1.19	0.12	0.00	17.51	7.290	5.28821	7.40610	0.0
8.9975	89.0112	-1.19	0.12	0.00	17.51	7.290	5.28562	7.40795	2.0
9.0175	89.0112	-1.19	0.12	0.00	17.51	7.290	5.28303	7.40979	4.0
9.0375	89.0112	-1.19	0.12	0.00	17.51	7.290	5.28045	7.41164	0.0
9.0575	89.0112	-1.19	0.12	0.00	17.51	7.290	5.27786	7.41348	4.0
9.0775	89.0112	-1.19	0.12	0.00	17.51	7.290	5.27527	7.41532	4.0
9.0975	89.0112	-1.19	0.12	0.00	17.51	7.290	5.27268	7.41716	2.0
9.1175	89.0112	-1.19	0.12	0.00	17.51	7.290	5.27009	7.41900	2.0
9.1375	89.0112	-1.19	0.12	0.00	17.51	7.290	5.26750	7.42084	0.0
9.1575	89.0112	-1.19	0.12	0.00	17.51	7.290	5.26491	7.42268	2.0
9.1775	89.0112	-1.19	0.12	0.00	17.51	7.290	5.26232	7.42452	0.0
9.1975	89.0112	-1.19	0.12	0.00	17.51	7.290	5.25973	7.42636	0.0
9.2175	89.0112	-1.19	0.12	0.00	17.51	7.290	5.25714	7.42819	2.0
9.2375	89.0112	-1.19	0.12	0.00	17.51	7.290	5.25454	7.43003	0.0
9.2575	89.0112	-1.19	0.12	0.00	17.51	7.290	5.25195	7.43186	4.0
9.2775	89.0112	-1.19	0.12	0.00	17.51	7.290	5.24935	7.43369	2.0
9.2975	89.0112	-1.19	0.12	0.00	17.51	7.290	5.24676	7.43552	6.0
9.3175	89.0112	-1.19	0.12	0.00	17.51	7.290	5.24416	7.43735	2.0
9.3375	89.0112	-1.19	0.12	0.00	17.51	7.290	5.24157	7.43918	0.0
9.3575	89.0112	-1.19	0.12	0.00	17.51	7.290	5.23897	7.44101	0.0
9.3775	89.0112	-1.19	0.12	0.00	17.51	7.290	5.23637	7.44284	0.0
9.3975	89.0112	-1.19	0.12	0.00	17.51	7.290	5.23377	7.44467	2.0
9.4175	89.0112	-1.19	0.12	0.00	17.51	7.290	5.23117	7.44650	0.0
9.4375	89.0112	-1.19	0.12	0.00	17.51	7.290	5.22858	7.44832	0.0
9.4575	89.0112	-1.19	0.12	0.00	17.51	7.290	5.22598	7.45015	2.0
9.4775	89.0112	-1.19	0.12	0.00	17.51	7.290	5.22337	7.45197	2.0
9.4975	89.0112	-1.19	0.12	0.00	17.51	7.290	5.22077	7.45379	2.0
9.5175	89.0112	-1.19	0.12	0.00	17.51	7.290	5.21817	7.45561	0.0
9.5375	89.0112	-1.19	0.12	0.00	17.51	7.290	5.21557	7.45744	2.0
9.5575	89.0112	-1.19	0.12	0.00	17.51	7.290	5.21296	7.45926	0.0
9.5775	89.0112	-1.19	0.12	0.00	17.51	7.290	5.21036	7.46108	2.0
9.5975	89.0112	-1.19	0.12	0.00	17.51	7.290	5.20776	7.46289	0.0
9.6175	89.0112	-1.19	0.12	0.00	17.51	7.290	5.20515	7.46471	0.0
9.6375	89.0112	-1.19	0.12	0.00	17.51	7.290	5.20254	7.46653	2.0
9.6575	89.0112	-1.19	0.12	0.00	17.51	7.290	5.19994	7.46834	2.0
9.6775	89.0112	-1.19	0.12	0.00	17.51	7.290	5.19733	7.47016	0.0
9.6975	89.0112	-1.19	0.12	0.00	17.51	7.290	5.19472	7.47197	2.0
9.7175	89.0112	-1.19	0.12	0.00	17.51	7.290	5.19211	7.47378	0.0
9.7375	89.0112	-1.19	0.12	0.00	17.51	7.290	5.18950	7.47560	2.0
9.7575	89.0112	-1.19	0.12	0.00	17.51	7.290	5.18689	7.47741	2.0
9.7775	89.0112	-1.19	0.12	0.00	17.51	7.290	5.18428	7.47922	2.0
9.7975	89.0112	-1.19	0.12	0.00	17.51	7.290	5.18167	7.48103	2.0
9.8175	89.0112	-1.19	0.12	0.00	17.51	7.290	5.17906	7.48283	2.0
9.8375	89.0112	-1.19	0.12	0.00	17.51	7.290	5.17645	7.48464	4.0
9.8575	89.0112	-1.19	0.12	0.00	17.51	7.290	5.17384	7.48645	0.0
9.8775	89.0112	-1.19	0.12	0.00	17.51	7.290	5.17122	7.48825	4.0
9.8975	89.0112	-1.19	0.12	0.00	17.51	7.290	5.16861	7.49006	2.0
9.9175	89.0112	-1.19	0.12	0.00	17.51	7.290	5.16599	7.49186	2.0
9.9375	89.0112	-1.19	0.12	0.00	17.51	7.290	5.16338	7.49367	0.0
9.9575	89.0112	-1.19	0.12	0.00	17.51	7.290	5.16076	7.49547	0.0
9.9775	89.0112	-1.19	0.12	0.00	17.51	7.290	5.15815	7.49727	2.0
9.9975	89.0112	-1.19	0.12	0.00	17.51	7.290	5.15553	7.49907	2.0
10.0175	89.0112	-1.19	0.12	0.00	17.51	7.290	5.15291	7.50087	0.0
10.0375	89.0112	-1.19	0.12	0.00	17.51	7.290	5.15029	7.50267	2.0
10.0575	89.0112	-1.19	0.12	0.00	17.51	7.290	5.14767	7.50446	2.0
10.0775	89.0112	-1.19	0.12	0.00	17.51	7.290	5.14505	7.50626	0.0
10.0975	89.0112	-1.19	0.12	0.00	17.51	7.290	5.14243	7.50806	2.0
10.1175	89.0112	-1.19	0.12	0.00	17.51	7.290	5.13981	7.50985	2.0
10.1375	89.0112	-1.19	0.12	0.00	17.51	7.290	5.13719	7.51164	0.0
10.1575	89.0112	-1.19	0.12	0.00	17.51	7.290	5.13457	7.51344	6.0
10.1775	89.0112	-1.19	0.12	0.00	17.51	7.290	5.13194	7.51523	2.0
10.1975	89.0112	-1.19	0.12	0.00	17.51	7.290	5.12932	7.51702	2.0
10.2175	89.0112	-1.19	0.12	0.00	17.51	7.290	5.12670	7.51881	2.0
10.2375	89.0112	-1.19	0.12	0.00	17.51	7.290	5.12407	7.52060	2.0
10.2575	89.0112	-1.19	0.12	0.00	17.51	7.290	5.12145	7.52239	0.0
10.2775	89.0112	-1.19	0.12	0.00	17.51	7.290	5.11882	7.52417	0.0
10.2975	89.0112	-1.19	0.12	0.00	17.51	7.290	5.11619	7.52596	0.0
10.3175	89.0112	-1.19	0.12	0.00	17.51	7.290	5.11357	7.52775	4.0
10.3375	89.0112	-1.19	0.12	0.00	17.51	7.290	5.11094	7.52953	2.0
10.3575	89.0112	-1.19	0.12	0.00	17.51	7.290	5.10831	7.53131	4.0
10.3775	89.0112	-1.19	0.12	0.00	17.51	7.290	5.10568	7.53310	0.0
10.3975	89.0112	-1.19	0.12	0.00	17.51	7.290	5.10305	7.53488	0.0
10.4175	89.0112	-1.19	0.12	0.00	17.51	7.290	5.10042	7.53666	2.0
10.4375	89.0112	-1.19	0.12	0.00	17.51	7.290	5.09779	7.53844	2.0
10.4575	89.0112	-1.19	0.12	0.00	17.51	7.290	5.09516	7.54022	0.0
10.4775	89.0112	-1.19	0.12	0.00	17.51	7.290	5.09252	7.54200	8.0
10.4975	89.0112	-1.19	0.12	0.00	17.51	7.290	5.08989	7.54377	2.0
10.5175	89.0112	-1.19	0.12	0.00	17.51	7.290	5.08726	7.54555	0.0
10.5375	89.0112	-1.19	0.12	0.00	17.51	7.290	5.08462	7.54732	2.0