File: Data/11371/2.0deg-2.0deg-rsm-3h10m_11371-annealed_224.dat
# filename: /home/lepecvd/lepecvd/11371/xray/2.0deg-2.0deg-rsm-3h10m_11371-E4_224.xrdml
# reflection: ('2', '2', '4')
# type: Area measurement
# x-axis: Omega_2Theta
# y-axis: Omega
#
# Omega	2Theta	Phi  	Chi   	X    	Y    	Z    	q_para	q_perp	Intensity
# [deg]	[deg] 	[deg]	[deg] 	[mm] 	[mm] 	[mm] 	[nm-1]	[nm-1]	[counts/s]
6.4777	85.0532	-0.92	0.32	0.00	17.53	7.303	5.16396	7.09483	2.0
6.4877	85.0732	-0.92	0.32	0.00	17.53	7.303	5.16494	7.09618	0.0
6.4977	85.0932	-0.92	0.32	0.00	17.53	7.303	5.16592	7.09753	2.0
6.5077	85.1132	-0.92	0.32	0.00	17.53	7.303	5.16690	7.09888	0.0
6.5177	85.1332	-0.92	0.32	0.00	17.53	7.303	5.16788	7.10023	0.0
6.5277	85.1532	-0.92	0.32	0.00	17.53	7.303	5.16887	7.10158	0.0
6.5377	85.1732	-0.92	0.32	0.00	17.53	7.303	5.16985	7.10293	0.0
6.5477	85.1932	-0.92	0.32	0.00	17.53	7.303	5.17083	7.10428	0.0
6.5577	85.2132	-0.92	0.32	0.00	17.53	7.303	5.17181	7.10563	4.0
6.5677	85.2332	-0.92	0.32	0.00	17.53	7.303	5.17279	7.10698	0.0
6.5777	85.2532	-0.92	0.32	0.00	17.53	7.303	5.17377	7.10832	2.0
6.5877	85.2732	-0.92	0.32	0.00	17.53	7.303	5.17476	7.10967	0.0
6.5977	85.2932	-0.92	0.32	0.00	17.53	7.303	5.17574	7.11102	0.0
6.6077	85.3132	-0.92	0.32	0.00	17.53	7.303	5.17672	7.11237	0.0
6.6177	85.3332	-0.92	0.32	0.00	17.53	7.303	5.17770	7.11371	0.0
6.6277	85.3532	-0.92	0.32	0.00	17.53	7.303	5.17868	7.11506	0.0
6.6377	85.3732	-0.92	0.32	0.00	17.53	7.303	5.17966	7.11641	2.0
6.6477	85.3932	-0.92	0.32	0.00	17.53	7.303	5.18064	7.11775	0.0
6.6577	85.4132	-0.92	0.32	0.00	17.53	7.303	5.18162	7.11910	4.0
6.6677	85.4332	-0.92	0.32	0.00	17.53	7.303	5.18260	7.12045	0.0
6.6777	85.4532	-0.92	0.32	0.00	17.53	7.303	5.18358	7.12179	2.0
6.6877	85.4732	-0.92	0.32	0.00	17.53	7.303	5.18456	7.12314	2.0
6.6977	85.4932	-0.92	0.32	0.00	17.53	7.303	5.18554	7.12448	0.0
6.7077	85.5132	-0.92	0.32	0.00	17.53	7.303	5.18651	7.12583	0.0
6.7177	85.5332	-0.92	0.32	0.00	17.53	7.303	5.18749	7.12717	0.0
6.7277	85.5532	-0.92	0.32	0.00	17.53	7.303	5.18847	7.12852	2.0
6.7377	85.5732	-0.92	0.32	0.00	17.53	7.303	5.18945	7.12986	2.0
6.7477	85.5932	-0.92	0.32	0.00	17.53	7.303	5.19043	7.13121	2.0
6.7577	85.6132	-0.92	0.32	0.00	17.53	7.303	5.19141	7.13255	4.0
6.7677	85.6332	-0.92	0.32	0.00	17.53	7.303	5.19239	7.13389	0.0
6.7777	85.6532	-0.92	0.32	0.00	17.53	7.303	5.19336	7.13524	0.0
6.7877	85.6732	-0.92	0.32	0.00	17.53	7.303	5.19434	7.13658	2.0
6.7977	85.6932	-0.92	0.32	0.00	17.53	7.303	5.19532	7.13793	6.0
6.8077	85.7132	-0.92	0.32	0.00	17.53	7.303	5.19630	7.13927	0.0
6.8177	85.7332	-0.92	0.32	0.00	17.53	7.303	5.19727	7.14061	4.0
6.8277	85.7532	-0.92	0.32	0.00	17.53	7.303	5.19825	7.14195	0.0
6.8377	85.7732	-0.92	0.32	0.00	17.53	7.303	5.19923	7.14330	2.0
6.8477	85.7932	-0.92	0.32	0.00	17.53	7.303	5.20021	7.14464	2.0
6.8577	85.8132	-0.92	0.32	0.00	17.53	7.303	5.20118	7.14598	0.0
6.8677	85.8332	-0.92	0.32	0.00	17.53	7.303	5.20216	7.14732	0.0
6.8777	85.8532	-0.92	0.32	0.00	17.53	7.303	5.20314	7.14866	0.0
6.8877	85.8732	-0.92	0.32	0.00	17.53	7.303	5.20411	7.15000	0.0
6.8977	85.8932	-0.92	0.32	0.00	17.53	7.303	5.20509	7.15135	0.0
6.9077	85.9132	-0.92	0.32	0.00	17.53	7.303	5.20606	7.15269	0.0
6.9177	85.9332	-0.92	0.32	0.00	17.53	7.303	5.20704	7.15403	2.0
6.9277	85.9532	-0.92	0.32	0.00	17.53	7.303	5.20802	7.15537	2.0
6.9377	85.9732	-0.92	0.32	0.00	17.53	7.303	5.20899	7.15671	0.0
6.9477	85.9932	-0.92	0.32	0.00	17.53	7.303	5.20997	7.15805	0.0
6.9577	86.0132	-0.92	0.32	0.00	17.53	7.303	5.21094	7.15939	0.0
6.9677	86.0332	-0.92	0.32	0.00	17.53	7.303	5.21192	7.16073	0.0
6.9777	86.0532	-0.92	0.32	0.00	17.53	7.303	5.21289	7.16207	0.0
6.9877	86.0732	-0.92	0.32	0.00	17.53	7.303	5.21387	7.16341	0.0
6.9977	86.0932	-0.92	0.32	0.00	17.53	7.303	5.21484	7.16474	4.0
7.0077	86.1132	-0.92	0.32	0.00	17.53	7.303	5.21581	7.16608	0.0
7.0177	86.1332	-0.92	0.32	0.00	17.53	7.303	5.21679	7.16742	0.0
7.0277	86.1532	-0.92	0.32	0.00	17.53	7.303	5.21776	7.16876	0.0
7.0377	86.1732	-0.92	0.32	0.00	17.53	7.303	5.21874	7.17010	0.0
7.0477	86.1932	-0.92	0.32	0.00	17.53	7.303	5.21971	7.17144	4.0
7.0577	86.2132	-0.92	0.32	0.00	17.53	7.303	5.22068	7.17277	2.0
7.0677	86.2332	-0.92	0.32	0.00	17.53	7.303	5.22166	7.17411	4.0
7.0777	86.2532	-0.92	0.32	0.00	17.53	7.303	5.22263	7.17545	0.0
7.0877	86.2732	-0.92	0.32	0.00	17.53	7.303	5.22360	7.17679	0.0
7.0977	86.2932	-0.92	0.32	0.00	17.53	7.303	5.22458	7.17812	2.0
7.1077	86.3132	-0.92	0.32	0.00	17.53	7.303	5.22555	7.17946	0.0
7.1177	86.3332	-0.92	0.32	0.00	17.53	7.303	5.22652	7.18079	0.0
7.1277	86.3532	-0.92	0.32	0.00	17.53	7.303	5.22749	7.18213	6.0
7.1377	86.3732	-0.92	0.32	0.00	17.53	7.303	5.22847	7.18347	0.0
7.1477	86.3932	-0.92	0.32	0.00	17.53	7.303	5.22944	7.18480	2.0
7.1577	86.4132	-0.92	0.32	0.00	17.53	7.303	5.23041	7.18614	4.0
7.1677	86.4332	-0.92	0.32	0.00	17.53	7.303	5.23138	7.18747	0.0
7.1777	86.4532	-0.92	0.32	0.00	17.53	7.303	5.23235	7.18881	0.0
7.1877	86.4732	-0.92	0.32	0.00	17.53	7.303	5.23333	7.19014	2.0
7.1977	86.4932	-0.92	0.32	0.00	17.53	7.303	5.23430	7.19148	0.0
7.2077	86.5132	-0.92	0.32	0.00	17.53	7.303	5.23527	7.19281	0.0
7.2177	86.5332	-0.92	0.32	0.00	17.53	7.303	5.23624	7.19415	2.0
7.2277	86.5532	-0.92	0.32	0.00	17.53	7.303	5.23721	7.19548	0.0
7.2377	86.5732	-0.92	0.32	0.00	17.53	7.303	5.23818	7.19681	6.0
7.2477	86.5932	-0.92	0.32	0.00	17.53	7.303	5.23915	7.19815	2.0
7.2577	86.6132	-0.92	0.32	0.00	17.53	7.303	5.24012	7.19948	0.0
7.2677	86.6332	-0.92	0.32	0.00	17.53	7.303	5.24109	7.20081	2.0
7.2777	86.6532	-0.92	0.32	0.00	17.53	7.303	5.24206	7.20215	0.0
7.2877	86.6732	-0.92	0.32	0.00	17.53	7.303	5.24303	7.20348	0.0
7.2977	86.6932	-0.92	0.32	0.00	17.53	7.303	5.24400	7.20481	0.0
7.3077	86.7132	-0.92	0.32	0.00	17.53	7.303	5.24497	7.20614	0.0
7.3177	86.7332	-0.92	0.32	0.00	17.53	7.303	5.24594	7.20747	4.0
7.3277	86.7532	-0.92	0.32	0.00	17.53	7.303	5.24691	7.20881	2.0
7.3377	86.7732	-0.92	0.32	0.00	17.53	7.303	5.24788	7.21014	4.0
7.3477	86.7932	-0.92	0.32	0.00	17.53	7.303	5.24885	7.21147	2.0
7.3577	86.8132	-0.92	0.32	0.00	17.53	7.303	5.24982	7.21280	0.0
7.3677	86.8332	-0.92	0.32	0.00	17.53	7.303	5.25079	7.21413	2.0
7.3777	86.8532	-0.92	0.32	0.00	17.53	7.303	5.25175	7.21546	0.0
7.3877	86.8732	-0.92	0.32	0.00	17.53	7.303	5.25272	7.21679	4.0
7.3977	86.8932	-0.92	0.32	0.00	17.53	7.303	5.25369	7.21812	2.0
7.4077	86.9132	-0.92	0.32	0.00	17.53	7.303	5.25466	7.21945	4.0
7.4177	86.9332	-0.92	0.32	0.00	17.53	7.303	5.25563	7.22078	0.0
7.4277	86.9532	-0.92	0.32	0.00	17.53	7.303	5.25659	7.22211	0.0
7.4377	86.9732	-0.92	0.32	0.00	17.53	7.303	5.25756	7.22344	4.0
7.4477	86.9932	-0.92	0.32	0.00	17.53	7.303	5.25853	7.22477	0.0
7.4577	87.0132	-0.92	0.32	0.00	17.53	7.303	5.25950	7.22610	0.0
7.4677	87.0332	-0.92	0.32	0.00	17.53	7.303	5.26046	7.22743	0.0
7.4777	87.0532	-0.92	0.32	0.00	17.53	7.303	5.26143	7.22875	0.0
7.4877	87.0732	-0.92	0.32	0.00	17.53	7.303	5.26240	7.23008	0.0
7.4977	87.0932	-0.92	0.32	0.00	17.53	7.303	5.26336	7.23141	0.0
7.5077	87.1132	-0.92	0.32	0.00	17.53	7.303	5.26433	7.23274	0.0
7.5177	87.1332	-0.92	0.32	0.00	17.53	7.303	5.26530	7.23407	0.0
7.5277	87.1532	-0.92	0.32	0.00	17.53	7.303	5.26626	7.23539	2.0
7.5377	87.1732	-0.92	0.32	0.00	17.53	7.303	5.26723	7.23672	0.0
7.5477	87.1932	-0.92	0.32	0.00	17.53	7.303	5.26819	7.23805	2.0
7.5577	87.2132	-0.92	0.32	0.00	17.53	7.303	5.26916	7.23937	2.0
7.5677	87.2332	-0.92	0.32	0.00	17.53	7.303	5.27012	7.24070	2.0
7.5777	87.2532	-0.92	0.32	0.00	17.53	7.303	5.27109	7.24203	0.0
7.5877	87.2732	-0.92	0.32	0.00	17.53	7.303	5.27205	7.24335	0.0
7.5977	87.2932	-0.92	0.32	0.00	17.53	7.303	5.27302	7.24468	0.0
7.6077	87.3132	-0.92	0.32	0.00	17.53	7.303	5.27398	7.24600	2.0
7.6177	87.3332	-0.92	0.32	0.00	17.53	7.303	5.27495	7.24733	4.0
7.6277	87.3532	-0.92	0.32	0.00	17.53	7.303	5.27591	7.24865	0.0
7.6377	87.3732	-0.92	0.32	0.00	17.53	7.303	5.27688	7.24998	2.0
7.6477	87.3932	-0.92	0.32	0.00	17.53	7.303	5.27784	7.25130	0.0
7.6577	87.4132	-0.92	0.32	0.00	17.53	7.303	5.27881	7.25263	4.0
7.6677	87.4332	-0.92	0.32	0.00	17.53	7.303	5.27977	7.25395	0.0
7.6777	87.4532	-0.92	0.32	0.00	17.53	7.303	5.28073	7.25528	4.0
7.6877	87.4732	-0.92	0.32	0.00	17.53	7.303	5.28170	7.25660	0.0
7.6977	87.4932	-0.92	0.32	0.00	17.53	7.303	5.28266	7.25792	2.0
7.7077	87.5132	-0.92	0.32	0.00	17.53	7.303	5.28362	7.25925	0.0
7.7177	87.5332	-0.92	0.32	0.00	17.53	7.303	5.28459	7.26057	0.0
7.7277	87.5532	-0.92	0.32	0.00	17.53	7.303	5.28555	7.26189	2.0
7.7377	87.5732	-0.92	0.32	0.00	17.53	7.303	5.28651	7.26322	2.0
7.7477	87.5932	-0.92	0.32	0.00	17.53	7.303	5.28747	7.26454	2.0
7.7577	87.6132	-0.92	0.32	0.00	17.53	7.303	5.28844	7.26586	2.0
7.7677	87.6332	-0.92	0.32	0.00	17.53	7.303	5.28940	7.26718	0.0
7.7777	87.6532	-0.92	0.32	0.00	17.53	7.303	5.29036	7.26850	4.0
7.7877	87.6732	-0.92	0.32	0.00	17.53	7.303	5.29132	7.26983	2.0
7.7977	87.6932	-0.92	0.32	0.00	17.53	7.303	5.29228	7.27115	0.0
7.8077	87.7132	-0.92	0.32	0.00	17.53	7.303	5.29325	7.27247	0.0
7.8177	87.7332	-0.92	0.32	0.00	17.53	7.303	5.29421	7.27379	2.0
7.8277	87.7532	-0.92	0.32	0.00	17.53	7.303	5.29517	7.27511	0.0
7.8377	87.7732	-0.92	0.32	0.00	17.53	7.303	5.29613	7.27643	0.0
7.8477	87.7932	-0.92	0.32	0.00	17.53	7.303	5.29709	7.27775	0.0
7.8577	87.8132	-0.92	0.32	0.00	17.53	7.303	5.29805	7.27907	2.0
7.8677	87.8332	-0.92	0.32	0.00	17.53	7.303	5.29901	7.28039	0.0
7.8777	87.8532	-0.92	0.32	0.00	17.53	7.303	5.29997	7.28171	2.0
7.8877	87.8732	-0.92	0.32	0.00	17.53	7.303	5.30093	7.28303	2.0
7.8977	87.8932	-0.92	0.32	0.00	17.53	7.303	5.30189	7.28435	0.0
7.9077	87.9132	-0.92	0.32	0.00	17.53	7.303	5.30285	7.28567	0.0
7.9177	87.9332	-0.92	0.32	0.00	17.53	7.303	5.30381	7.28699	0.0
7.9277	87.9532	-0.92	0.32	0.00	17.53	7.303	5.30477	7.28830	0.0
7.9377	87.9732	-0.92	0.32	0.00	17.53	7.303	5.30573	7.28962	2.0
7.9477	87.9932	-0.92	0.32	0.00	17.53	7.303	5.30669	7.29094	0.0
7.9577	88.0132	-0.92	0.32	0.00	17.53	7.303	5.30765	7.29226	0.0
7.9677	88.0332	-0.92	0.32	0.00	17.53	7.303	5.30861	7.29357	0.0
7.9777	88.0532	-0.92	0.32	0.00	17.53	7.303	5.30957	7.29489	0.0
7.9877	88.0732	-0.92	0.32	0.00	17.53	7.303	5.31053	7.29621	2.0
7.9977	88.0932	-0.92	0.32	0.00	17.53	7.303	5.31148	7.29753	0.0
8.0077	88.1132	-0.92	0.32	0.00	17.53	7.303	5.31244	7.29884	0.0
8.0177	88.1332	-0.92	0.32	0.00	17.53	7.303	5.31340	7.30016	2.0
8.0277	88.1532	-0.92	0.32	0.00	17.53	7.303	5.31436	7.30148	0.0
8.0377	88.1732	-0.92	0.32	0.00	17.53	7.303	5.31532	7.30279	2.0
8.0477	88.1932	-0.92	0.32	0.00	17.53	7.303	5.31627	7.30411	2.0
8.0577	88.2132	-0.92	0.32	0.00	17.53	7.303	5.31723	7.30542	0.0
8.0677	88.2332	-0.92	0.32	0.00	17.53	7.303	5.31819	7.30674	2.0
8.0777	88.2532	-0.92	0.32	0.00	17.53	7.303	5.31915	7.30805	0.0
8.0877	88.2732	-0.92	0.32	0.00	17.53	7.303	5.32010	7.30937	2.0
8.0977	88.2932	-0.92	0.32	0.00	17.53	7.303	5.32106	7.31068	0.0
8.1077	88.3132	-0.92	0.32	0.00	17.53	7.303	5.32202	7.31200	0.0
8.1177	88.3332	-0.92	0.32	0.00	17.53	7.303	5.32297	7.31331	2.0
8.1277	88.3532	-0.92	0.32	0.00	17.53	7.303	5.32393	7.31463	2.0
8.1377	88.3732	-0.92	0.32	0.00	17.53	7.303	5.32489	7.31594	0.0
8.1477	88.3932	-0.92	0.32	0.00	17.53	7.303	5.32584	7.31725	0.0
8.1577	88.4132	-0.92	0.32	0.00	17.53	7.303	5.32680	7.31857	0.0
8.1677	88.4332	-0.92	0.32	0.00	17.53	7.303	5.32775	7.31988	2.0
8.1777	88.4532	-0.92	0.32	0.00	17.53	7.303	5.32871	7.32119	0.0
8.1877	88.4732	-0.92	0.32	0.00	17.53	7.303	5.32967	7.32250	2.0
8.1977	88.4932	-0.92	0.32	0.00	17.53	7.303	5.33062	7.32382	0.0
8.2077	88.5132	-0.92	0.32	0.00	17.53	7.303	5.33158	7.32513	0.0
8.2177	88.5332	-0.92	0.32	0.00	17.53	7.303	5.33253	7.32644	2.0
8.2277	88.5532	-0.92	0.32	0.00	17.53	7.303	5.33349	7.32775	2.0
8.2377	88.5732	-0.92	0.32	0.00	17.53	7.303	5.33444	7.32906	0.0
8.2477	88.5932	-0.92	0.32	0.00	17.53	7.303	5.33539	7.33038	0.0
8.2577	88.6132	-0.92	0.32	0.00	17.53	7.303	5.33635	7.33169	4.0
8.2677	88.6332	-0.92	0.32	0.00	17.53	7.303	5.33730	7.33300	2.0
8.2777	88.6532	-0.92	0.32	0.00	17.53	7.303	5.33826	7.33431	0.0
8.2877	88.6732	-0.92	0.32	0.00	17.53	7.303	5.33921	7.33562	0.0
8.2977	88.6932	-0.92	0.32	0.00	17.53	7.303	5.34016	7.33693	0.0
8.3077	88.7132	-0.92	0.32	0.00	17.53	7.303	5.34112	7.33824	4.0
8.3177	88.7332	-0.92	0.32	0.00	17.53	7.303	5.34207	7.33955	0.0
8.3277	88.7532	-0.92	0.32	0.00	17.53	7.303	5.34302	7.34086	2.0
8.3377	88.7732	-0.92	0.32	0.00	17.53	7.303	5.34398	7.34217	0.0
8.3477	88.7932	-0.92	0.32	0.00	17.53	7.303	5.34493	7.34348	0.0
8.3577	88.8132	-0.92	0.32	0.00	17.53	7.303	5.34588	7.34479	2.0
8.3677	88.8332	-0.92	0.32	0.00	17.53	7.303	5.34683	7.34609	0.0
8.3777	88.8532	-0.92	0.32	0.00	17.53	7.303	5.34779	7.34740	0.0
8.3877	88.8732	-0.92	0.32	0.00	17.53	7.303	5.34874	7.34871	0.0
8.3977	88.8932	-0.92	0.32	0.00	17.53	7.303	5.34969	7.35002	0.0
8.4077	88.9132	-0.92	0.32	0.00	17.53	7.303	5.35064	7.35133	2.0
8.4177	88.9332	-0.92	0.32	0.00	17.53	7.303	5.35159	7.35263	0.0
8.4277	88.9532	-0.92	0.32	0.00	17.53	7.303	5.35255	7.35394	0.0
8.4377	88.9732	-0.92	0.32	0.00	17.53	7.303	5.35350	7.35525	4.0
8.4477	88.9932	-0.92	0.32	0.00	17.53	7.303	5.35445	7.35656	0.0
8.4577	89.0132	-0.92	0.32	0.00	17.53	7.303	5.35540	7.35786	2.0

6.4977	85.0532	-0.92	0.32	0.00	17.53	7.303	5.16148	7.09664	0.0
6.5077	85.0732	-0.92	0.32	0.00	17.53	7.303	5.16246	7.09799	2.0
6.5177	85.0932	-0.92	0.32	0.00	17.53	7.303	5.16344	7.09934	0.0
6.5277	85.1132	-0.92	0.32	0.00	17.53	7.303	5.16442	7.10069	2.0
6.5377	85.1332	-0.92	0.32	0.00	17.53	7.303	5.16541	7.10204	0.0
6.5477	85.1532	-0.92	0.32	0.00	17.53	7.303	5.16639	7.10338	0.0
6.5577	85.1732	-0.92	0.32	0.00	17.53	7.303	5.16737	7.10473	0.0
6.5677	85.1932	-0.92	0.32	0.00	17.53	7.303	5.16835	7.10608	0.0
6.5777	85.2132	-0.92	0.32	0.00	17.53	7.303	5.16933	7.10743	2.0
6.5877	85.2332	-0.92	0.32	0.00	17.53	7.303	5.17031	7.10878	2.0
6.5977	85.2532	-0.92	0.32	0.00	17.53	7.303	5.17129	7.11013	0.0
6.6077	85.2732	-0.92	0.32	0.00	17.53	7.303	5.17227	7.11148	6.0
6.6177	85.2932	-0.92	0.32	0.00	17.53	7.303	5.17325	7.11283	2.0
6.6277	85.3132	-0.92	0.32	0.00	17.53	7.303	5.17423	7.11417	0.0
6.6377	85.3332	-0.92	0.32	0.00	17.53	7.303	5.17521	7.11552	4.0
6.6477	85.3532	-0.92	0.32	0.00	17.53	7.303	5.17619	7.11687	0.0
6.6577	85.3732	-0.92	0.32	0.00	17.53	7.303	5.17717	7.11821	0.0
6.6677	85.3932	-0.92	0.32	0.00	17.53	7.303	5.17815	7.11956	0.0
6.6777	85.4132	-0.92	0.32	0.00	17.53	7.303	5.17913	7.12091	2.0
6.6877	85.4332	-0.92	0.32	0.00	17.53	7.303	5.18011	7.12225	2.0
6.6977	85.4532	-0.92	0.32	0.00	17.53	7.303	5.18109	7.12360	0.0
6.7077	85.4732	-0.92	0.32	0.00	17.53	7.303	5.18207	7.12495	2.0
6.7177	85.4932	-0.92	0.32	0.00	17.53	7.303	5.18305	7.12629	2.0
6.7277	85.5132	-0.92	0.32	0.00	17.53	7.303	5.18403	7.12764	2.0
6.7377	85.5332	-0.92	0.32	0.00	17.53	7.303	5.18501	7.12898	0.0
6.7477	85.5532	-0.92	0.32	0.00	17.53	7.303	5.18598	7.13033	2.0
6.7577	85.5732	-0.92	0.32	0.00	17.53	7.303	5.18696	7.13167	0.0
6.7677	85.5932	-0.92	0.32	0.00	17.53	7.303	5.18794	7.13302	0.0
6.7777	85.6132	-0.92	0.32	0.00	17.53	7.303	5.18892	7.13436	2.0
6.7877	85.6332	-0.92	0.32	0.00	17.53	7.303	5.18990	7.13571	2.0
6.7977	85.6532	-0.92	0.32	0.00	17.53	7.303	5.19087	7.13705	0.0
6.8077	85.6732	-0.92	0.32	0.00	17.53	7.303	5.19185	7.13839	0.0
6.8177	85.6932	-0.92	0.32	0.00	17.53	7.303	5.19283	7.13974	0.0
6.8277	85.7132	-0.92	0.32	0.00	17.53	7.303	5.19380	7.14108	4.0
6.8377	85.7332	-0.92	0.32	0.00	17.53	7.303	5.19478	7.14242	2.0
6.8477	85.7532	-0.92	0.32	0.00	17.53	7.303	5.19576	7.14377	0.0
6.8577	85.7732	-0.92	0.32	0.00	17.53	7.303	5.19674	7.14511	2.0
6.8677	85.7932	-0.92	0.32	0.00	17.53	7.303	5.19771	7.14645	2.0
6.8777	85.8132	-0.92	0.32	0.00	17.53	7.303	5.19869	7.14780	0.0
6.8877	85.8332	-0.92	0.32	0.00	17.53	7.303	5.19966	7.14914	0.0
6.8977	85.8532	-0.92	0.32	0.00	17.53	7.303	5.20064	7.15048	0.0
6.9077	85.8732	-0.92	0.32	0.00	17.53	7.303	5.20162	7.15182	0.0
6.9177	85.8932	-0.92	0.32	0.00	17.53	7.303	5.20259	7.15316	0.0
6.9277	85.9132	-0.92	0.32	0.00	17.53	7.303	5.20357	7.15450	2.0
6.9377	85.9332	-0.92	0.32	0.00	17.53	7.303	5.20454	7.15584	2.0
6.9477	85.9532	-0.92	0.32	0.00	17.53	7.303	5.20552	7.15719	0.0
6.9577	85.9732	-0.92	0.32	0.00	17.53	7.303	5.20649	7.15853	4.0
6.9677	85.9932	-0.92	0.32	0.00	17.53	7.303	5.20747	7.15987	0.0
6.9777	86.0132	-0.92	0.32	0.00	17.53	7.303	5.20844	7.16121	0.0
6.9877	86.0332	-0.92	0.32	0.00	17.53	7.303	5.20942	7.16255	2.0
6.9977	86.0532	-0.92	0.32	0.00	17.53	7.303	5.21039	7.16389	2.0
7.0077	86.0732	-0.92	0.32	0.00	17.53	7.303	5.21136	7.16523	0.0
7.0177	86.0932	-0.92	0.32	0.00	17.53	7.303	5.21234	7.16656	2.0
7.0277	86.1132	-0.92	0.32	0.00	17.53	7.303	5.21331	7.16790	2.0
7.0377	86.1332	-0.92	0.32	0.00	17.53	7.303	5.21429	7.16924	4.0
7.0477	86.1532	-0.92	0.32	0.00	17.53	7.303	5.21526	7.17058	2.0
7.0577	86.1732	-0.92	0.32	0.00	17.53	7.303	5.21623	7.17192	0.0
7.0677	86.1932	-0.92	0.32	0.00	17.53	7.303	5.21721	7.17326	0.0
7.0777	86.2132	-0.92	0.32	0.00	17.53	7.303	5.21818	7.17460	2.0
7.0877	86.2332	-0.92	0.32	0.00	17.53	7.303	5.21915	7.17593	0.0
7.0977	86.2532	-0.92	0.32	0.00	17.53	7.303	5.22013	7.17727	4.0
7.1077	86.2732	-0.92	0.32	0.00	17.53	7.303	5.22110	7.17861	0.0
7.1177	86.2932	-0.92	0.32	0.00	17.53	7.303	5.22207	7.17995	2.0
7.1277	86.3132	-0.92	0.32	0.00	17.53	7.303	5.22304	7.18128	6.0
7.1377	86.3332	-0.92	0.32	0.00	17.53	7.303	5.22402	7.18262	4.0
7.1477	86.3532	-0.92	0.32	0.00	17.53	7.303	5.22499	7.18395	0.0
7.1577	86.3732	-0.92	0.32	0.00	17.53	7.303	5.22596	7.18529	0.0
7.1677	86.3932	-0.92	0.32	0.00	17.53	7.303	5.22693	7.18663	2.0
7.1777	86.4132	-0.92	0.32	0.00	17.53	7.303	5.22790	7.18796	2.0
7.1877	86.4332	-0.92	0.32	0.00	17.53	7.303	5.22887	7.18930	2.0
7.1977	86.4532	-0.92	0.32	0.00	17.53	7.303	5.22984	7.19063	4.0
7.2077	86.4732	-0.92	0.32	0.00	17.53	7.303	5.23082	7.19197	0.0
7.2177	86.4932	-0.92	0.32	0.00	17.53	7.303	5.23179	7.19330	2.0
7.2277	86.5132	-0.92	0.32	0.00	17.53	7.303	5.23276	7.19464	2.0
7.2377	86.5332	-0.92	0.32	0.00	17.53	7.303	5.23373	7.19597	6.0
7.2477	86.5532	-0.92	0.32	0.00	17.53	7.303	5.23470	7.19731	0.0
7.2577	86.5732	-0.92	0.32	0.00	17.53	7.303	5.23567	7.19864	6.0
7.2677	86.5932	-0.92	0.32	0.00	17.53	7.303	5.23664	7.19997	2.0
7.2777	86.6132	-0.92	0.32	0.00	17.53	7.303	5.23761	7.20131	2.0
7.2877	86.6332	-0.92	0.32	0.00	17.53	7.303	5.23858	7.20264	6.0
7.2977	86.6532	-0.92	0.32	0.00	17.53	7.303	5.23955	7.20397	2.0
7.3077	86.6732	-0.92	0.32	0.00	17.53	7.303	5.24052	7.20531	0.0
7.3177	86.6932	-0.92	0.32	0.00	17.53	7.303	5.24149	7.20664	2.0
7.3277	86.7132	-0.92	0.32	0.00	17.53	7.303	5.24246	7.20797	4.0
7.3377	86.7332	-0.92	0.32	0.00	17.53	7.303	5.24342	7.20931	2.0
7.3477	86.7532	-0.92	0.32	0.00	17.53	7.303	5.24439	7.21064	0.0
7.3577	86.7732	-0.92	0.32	0.00	17.53	7.303	5.24536	7.21197	0.0
7.3677	86.7932	-0.92	0.32	0.00	17.53	7.303	5.24633	7.21330	2.0
7.3777	86.8132	-0.92	0.32	0.00	17.53	7.303	5.24730	7.21463	0.0
7.3877	86.8332	-0.92	0.32	0.00	17.53	7.303	5.24827	7.21596	2.0
7.3977	86.8532	-0.92	0.32	0.00	17.53	7.303	5.24923	7.21729	0.0
7.4077	86.8732	-0.92	0.32	0.00	17.53	7.303	5.25020	7.21862	0.0
7.4177	86.8932	-0.92	0.32	0.00	17.53	7.303	5.25117	7.21996	0.0
7.4277	86.9132	-0.92	0.32	0.00	17.53	7.303	5.25214	7.22129	2.0
7.4377	86.9332	-0.92	0.32	0.00	17.53	7.303	5.25311	7.22262	0.0
7.4477	86.9532	-0.92	0.32	0.00	17.53	7.303	5.25407	7.22395	2.0
7.4577	86.9732	-0.92	0.32	0.00	17.53	7.303	5.25504	7.22527	4.0
7.4677	86.9932	-0.92	0.32	0.00	17.53	7.303	5.25601	7.22660	2.0
7.4777	87.0132	-0.92	0.32	0.00	17.53	7.303	5.25697	7.22793	0.0
7.4877	87.0332	-0.92	0.32	0.00	17.53	7.303	5.25794	7.22926	0.0
7.4977	87.0532	-0.92	0.32	0.00	17.53	7.303	5.25891	7.23059	0.0
7.5077	87.0732	-0.92	0.32	0.00	17.53	7.303	5.25987	7.23192	0.0
7.5177	87.0932	-0.92	0.32	0.00	17.53	7.303	5.26084	7.23325	0.0
7.5277	87.1132	-0.92	0.32	0.00	17.53	7.303	5.26180	7.23458	0.0
7.5377	87.1332	-0.92	0.32	0.00	17.53	7.303	5.26277	7.23590	2.0
7.5477	87.1532	-0.92	0.32	0.00	17.53	7.303	5.26374	7.23723	6.0
7.5577	87.1732	-0.92	0.32	0.00	17.53	7.303	5.26470	7.23856	0.0
7.5677	87.1932	-0.92	0.32	0.00	17.53	7.303	5.26567	7.23989	2.0
7.5777	87.2132	-0.92	0.32	0.00	17.53	7.303	5.26663	7.24121	2.0
7.5877	87.2332	-0.92	0.32	0.00	17.53	7.303	5.26760	7.24254	0.0
7.5977	87.2532	-0.92	0.32	0.00	17.53	7.303	5.26856	7.24387	0.0
7.6077	87.2732	-0.92	0.32	0.00	17.53	7.303	5.26953	7.24519	2.0
7.6177	87.2932	-0.92	0.32	0.00	17.53	7.303	5.27049	7.24652	0.0
7.6277	87.3132	-0.92	0.32	0.00	17.53	7.303	5.27145	7.24784	6.0
7.6377	87.3332	-0.92	0.32	0.00	17.53	7.303	5.27242	7.24917	0.0
7.6477	87.3532	-0.92	0.32	0.00	17.53	7.303	5.27338	7.25050	2.0
7.6577	87.3732	-0.92	0.32	0.00	17.53	7.303	5.27435	7.25182	0.0
7.6677	87.3932	-0.92	0.32	0.00	17.53	7.303	5.27531	7.25315	2.0
7.6777	87.4132	-0.92	0.32	0.00	17.53	7.303	5.27627	7.25447	0.0
7.6877	87.4332	-0.92	0.32	0.00	17.53	7.303	5.27724	7.25579	0.0
7.6977	87.4532	-0.92	0.32	0.00	17.53	7.303	5.27820	7.25712	0.0
7.7077	87.4732	-0.92	0.32	0.00	17.53	7.303	5.27916	7.25844	2.0
7.7177	87.4932	-0.92	0.32	0.00	17.53	7.303	5.28013	7.25977	0.0
7.7277	87.5132	-0.92	0.32	0.00	17.53	7.303	5.28109	7.26109	0.0
7.7377	87.5332	-0.92	0.32	0.00	17.53	7.303	5.28205	7.26241	4.0
7.7477	87.5532	-0.92	0.32	0.00	17.53	7.303	5.28301	7.26374	2.0
7.7577	87.5732	-0.92	0.32	0.00	17.53	7.303	5.28398	7.26506	0.0
7.7677	87.5932	-0.92	0.32	0.00	17.53	7.303	5.28494	7.26638	0.0
7.7777	87.6132	-0.92	0.32	0.00	17.53	7.303	5.28590	7.26771	0.0
7.7877	87.6332	-0.92	0.32	0.00	17.53	7.303	5.28686	7.26903	4.0
7.7977	87.6532	-0.92	0.32	0.00	17.53	7.303	5.28782	7.27035	0.0
7.8077	87.6732	-0.92	0.32	0.00	17.53	7.303	5.28878	7.27167	2.0
7.8177	87.6932	-0.92	0.32	0.00	17.53	7.303	5.28975	7.27299	0.0
7.8277	87.7132	-0.92	0.32	0.00	17.53	7.303	5.29071	7.27431	0.0
7.8377	87.7332	-0.92	0.32	0.00	17.53	7.303	5.29167	7.27564	0.0
7.8477	87.7532	-0.92	0.32	0.00	17.53	7.303	5.29263	7.27696	2.0
7.8577	87.7732	-0.92	0.32	0.00	17.53	7.303	5.29359	7.27828	0.0
7.8677	87.7932	-0.92	0.32	0.00	17.53	7.303	5.29455	7.27960	2.0
7.8777	87.8132	-0.92	0.32	0.00	17.53	7.303	5.29551	7.28092	4.0
7.8877	87.8332	-0.92	0.32	0.00	17.53	7.303	5.29647	7.28224	0.0
7.8977	87.8532	-0.92	0.32	0.00	17.53	7.303	5.29743	7.28356	2.0
7.9077	87.8732	-0.92	0.32	0.00	17.53	7.303	5.29839	7.28488	0.0
7.9177	87.8932	-0.92	0.32	0.00	17.53	7.303	5.29935	7.28620	4.0
7.9277	87.9132	-0.92	0.32	0.00	17.53	7.303	5.30031	7.28752	0.0
7.9377	87.9332	-0.92	0.32	0.00	17.53	7.303	5.30127	7.28884	2.0
7.9477	87.9532	-0.92	0.32	0.00	17.53	7.303	5.30223	7.29015	2.0
7.9577	87.9732	-0.92	0.32	0.00	17.53	7.303	5.30319	7.29147	0.0
7.9677	87.9932	-0.92	0.32	0.00	17.53	7.303	5.30415	7.29279	0.0
7.9777	88.0132	-0.92	0.32	0.00	17.53	7.303	5.30510	7.29411	4.0
7.9877	88.0332	-0.92	0.32	0.00	17.53	7.303	5.30606	7.29543	0.0
7.9977	88.0532	-0.92	0.32	0.00	17.53	7.303	5.30702	7.29675	0.0
8.0077	88.0732	-0.92	0.32	0.00	17.53	7.303	5.30798	7.29806	0.0
8.0177	88.0932	-0.92	0.32	0.00	17.53	7.303	5.30894	7.29938	2.0
8.0277	88.1132	-0.92	0.32	0.00	17.53	7.303	5.30990	7.30070	2.0
8.0377	88.1332	-0.92	0.32	0.00	17.53	7.303	5.31085	7.30201	2.0
8.0477	88.1532	-0.92	0.32	0.00	17.53	7.303	5.31181	7.30333	0.0
8.0577	88.1732	-0.92	0.32	0.00	17.53	7.303	5.31277	7.30465	2.0
8.0677	88.1932	-0.92	0.32	0.00	17.53	7.303	5.31372	7.30596	0.0
8.0777	88.2132	-0.92	0.32	0.00	17.53	7.303	5.31468	7.30728	2.0
8.0877	88.2332	-0.92	0.32	0.00	17.53	7.303	5.31564	7.30859	2.0
8.0977	88.2532	-0.92	0.32	0.00	17.53	7.303	5.31660	7.30991	2.0
8.1077	88.2732	-0.92	0.32	0.00	17.53	7.303	5.31755	7.31122	0.0
8.1177	88.2932	-0.92	0.32	0.00	17.53	7.303	5.31851	7.31254	4.0
8.1277	88.3132	-0.92	0.32	0.00	17.53	7.303	5.31946	7.31385	0.0
8.1377	88.3332	-0.92	0.32	0.00	17.53	7.303	5.32042	7.31517	0.0
8.1477	88.3532	-0.92	0.32	0.00	17.53	7.303	5.32138	7.31648	2.0
8.1577	88.3732	-0.92	0.32	0.00	17.53	7.303	5.32233	7.31780	0.0
8.1677	88.3932	-0.92	0.32	0.00	17.53	7.303	5.32329	7.31911	0.0
8.1777	88.4132	-0.92	0.32	0.00	17.53	7.303	5.32424	7.32043	2.0
8.1877	88.4332	-0.92	0.32	0.00	17.53	7.303	5.32520	7.32174	0.0
8.1977	88.4532	-0.92	0.32	0.00	17.53	7.303	5.32615	7.32305	2.0
8.2077	88.4732	-0.92	0.32	0.00	17.53	7.303	5.32711	7.32436	0.0
8.2177	88.4932	-0.92	0.32	0.00	17.53	7.303	5.32806	7.32568	2.0
8.2277	88.5132	-0.92	0.32	0.00	17.53	7.303	5.32902	7.32699	0.0
8.2377	88.5332	-0.92	0.32	0.00	17.53	7.303	5.32997	7.32830	6.0
8.2477	88.5532	-0.92	0.32	0.00	17.53	7.303	5.33093	7.32961	0.0
8.2577	88.5732	-0.92	0.32	0.00	17.53	7.303	5.33188	7.33093	2.0
8.2677	88.5932	-0.92	0.32	0.00	17.53	7.303	5.33284	7.33224	0.0
8.2777	88.6132	-0.92	0.32	0.00	17.53	7.303	5.33379	7.33355	0.0
8.2877	88.6332	-0.92	0.32	0.00	17.53	7.303	5.33474	7.33486	2.0
8.2977	88.6532	-0.92	0.32	0.00	17.53	7.303	5.33570	7.33617	2.0
8.3077	88.6732	-0.92	0.32	0.00	17.53	7.303	5.33665	7.33748	0.0
8.3177	88.6932	-0.92	0.32	0.00	17.53	7.303	5.33760	7.33879	2.0
8.3277	88.7132	-0.92	0.32	0.00	17.53	7.303	5.33856	7.34010	0.0
8.3377	88.7332	-0.92	0.32	0.00	17.53	7.303	5.33951	7.34141	0.0
8.3477	88.7532	-0.92	0.32	0.00	17.53	7.303	5.34046	7.34272	0.0
8.3577	88.7732	-0.92	0.32	0.00	17.53	7.303	5.34141	7.34403	2.0
8.3677	88.7932	-0.92	0.32	0.00	17.53	7.303	5.34237	7.34534	0.0
8.3777	88.8132	-0.92	0.32	0.00	17.53	7.303	5.34332	7.34665	0.0
8.3877	88.8332	-0.92	0.32	0.00	17.53	7.303	5.34427	7.34796	0.0
8.3977	88.8532	-0.92	0.32	0.00	17.53	7.303	5.34522	7.34927	2.0
8.4077	88.8732	-0.92	0.32	0.00	17.53	7.303	5.34617	7.35058	0.0
8.4177	88.8932	-0.92	0.32	0.00	17.53	7.303	5.34713	7.35189	0.0
8.4277	88.9132	-0.92	0.32	0.00	17.53	7.303	5.34808	7.35319	0.0
8.4377	88.9332	-0.92	0.32	0.00	17.53	7.303	5.34903	7.35450	2.0
8.4477	88.9532	-0.92	0.32	0.00	17.53	7.303	5.34998	7.35581	4.0
8.4577	88.9732	-0.92	0.32	0.00	17.53	7.303	5.35093	7.35712	0.0
8.4677	88.9932	-0.92	0.32	0.00	17.53	7.303	5.35188	7.35842	0.0
8.4777	89.0132	-0.92	0.32	0.00	17.53	7.303	5.35283	7.35973	2.0

6.5177	85.0532	-0.92	0.32	0.00	17.53	7.303	5.15900	7.09844	4.0
6.5277	85.0732	-0.92	0.32	0.00	17.53	7.303	5.15998	7.09979	2.0
6.5377	85.0932	-0.92	0.32	0.00	17.53	7.303	5.16096	7.10114	0.0
6.5477	85.1132	-0.92	0.32	0.00	17.53	7.303	5.16195	7.10249	4.0
6.5577	85.1332	-0.92	0.32	0.00	17.53	7.303	5.16293	7.10384	0.0
6.5677	85.1532	-0.92	0.32	0.00	17.53	7.303	5.16391	7.10519	2.0
6.5777	85.1732	-0.92	0.32	0.00	17.53	7.303	5.16489	7.10654	0.0
6.5877	85.1932	-0.92	0.32	0.00	17.53	7.303	5.16587	7.10789	2.0
6.5977	85.2132	-0.92	0.32	0.00	17.53	7.303	5.16685	7.10924	0.0
6.6077	85.2332	-0.92	0.32	0.00	17.53	7.303	5.16783	7.11058	2.0
6.6177	85.2532	-0.92	0.32	0.00	17.53	7.303	5.16881	7.11193	0.0
6.6277	85.2732	-0.92	0.32	0.00	17.53	7.303	5.16979	7.11328	0.0
6.6377	85.2932	-0.92	0.32	0.00	17.53	7.303	5.17077	7.11463	2.0
6.6477	85.3132	-0.92	0.32	0.00	17.53	7.303	5.17175	7.11598	2.0
6.6577	85.3332	-0.92	0.32	0.00	17.53	7.303	5.17273	7.11733	2.0
6.6677	85.3532	-0.92	0.32	0.00	17.53	7.303	5.17371	7.11867	0.0
6.6777	85.3732	-0.92	0.32	0.00	17.53	7.303	5.17469	7.12002	4.0
6.6877	85.3932	-0.92	0.32	0.00	17.53	7.303	5.17567	7.12137	0.0
6.6977	85.4132	-0.92	0.32	0.00	17.53	7.303	5.17665	7.12272	0.0
6.7077	85.4332	-0.92	0.32	0.00	17.53	7.303	5.17763	7.12406	0.0
6.7177	85.4532	-0.92	0.32	0.00	17.53	7.303	5.17860	7.12541	2.0
6.7277	85.4732	-0.92	0.32	0.00	17.53	7.303	5.17958	7.12676	0.0
6.7377	85.4932	-0.92	0.32	0.00	17.53	7.303	5.18056	7.12810	0.0
6.7477	85.5132	-0.92	0.32	0.00	17.53	7.303	5.18154	7.12945	2.0
6.7577	85.5332	-0.92	0.32	0.00	17.53	7.303	5.18252	7.13079	0.0
6.7677	85.5532	-0.92	0.32	0.00	17.53	7.303	5.18349	7.13214	2.0
6.7777	85.5732	-0.92	0.32	0.00	17.53	7.303	5.18447	7.13348	0.0
6.7877	85.5932	-0.92	0.32	0.00	17.53	7.303	5.18545	7.13483	2.0
6.7977	85.6132	-0.92	0.32	0.00	17.53	7.303	5.18643	7.13617	2.0
6.8077	85.6332	-0.92	0.32	0.00	17.53	7.303	5.18740	7.13752	0.0
6.8177	85.6532	-0.92	0.32	0.00	17.53	7.303	5.18838	7.13886	0.0
6.8277	85.6732	-0.92	0.32	0.00	17.53	7.303	5.18936	7.14021	2.0
6.8377	85.6932	-0.92	0.32	0.00	17.53	7.303	5.19034	7.14155	0.0
6.8477	85.7132	-0.92	0.32	0.00	17.53	7.303	5.19131	7.14289	0.0
6.8577	85.7332	-0.92	0.32	0.00	17.53	7.303	5.19229	7.14424	2.0
6.8677	85.7532	-0.92	0.32	0.00	17.53	7.303	5.19326	7.14558	0.0
6.8777	85.7732	-0.92	0.32	0.00	17.53	7.303	5.19424	7.14692	2.0
6.8877	85.7932	-0.92	0.32	0.00	17.53	7.303	5.19522	7.14827	0.0
6.8977	85.8132	-0.92	0.32	0.00	17.53	7.303	5.19619	7.14961	0.0
6.9077	85.8332	-0.92	0.32	0.00	17.53	7.303	5.19717	7.15095	0.0
6.9177	85.8532	-0.92	0.32	0.00	17.53	7.303	5.19814	7.15229	0.0
6.9277	85.8732	-0.92	0.32	0.00	17.53	7.303	5.19912	7.15364	0.0
6.9377	85.8932	-0.92	0.32	0.00	17.53	7.303	5.20009	7.15498	4.0
6.9477	85.9132	-0.92	0.32	0.00	17.53	7.303	5.20107	7.15632	4.0
6.9577	85.9332	-0.92	0.32	0.00	17.53	7.303	5.20204	7.15766	2.0
6.9677	85.9532	-0.92	0.32	0.00	17.53	7.303	5.20302	7.15900	2.0
6.9777	85.9732	-0.92	0.32	0.00	17.53	7.303	5.20399	7.16034	0.0
6.9877	85.9932	-0.92	0.32	0.00	17.53	7.303	5.20497	7.16168	0.0
6.9977	86.0132	-0.92	0.32	0.00	17.53	7.303	5.20594	7.16302	0.0
7.0077	86.0332	-0.92	0.32	0.00	17.53	7.303	5.20692	7.16436	0.0
7.0177	86.0532	-0.92	0.32	0.00	17.53	7.303	5.20789	7.16570	0.0
7.0277	86.0732	-0.92	0.32	0.00	17.53	7.303	5.20886	7.16704	2.0
7.0377	86.0932	-0.92	0.32	0.00	17.53	7.303	5.20984	7.16838	2.0
7.0477	86.1132	-0.92	0.32	0.00	17.53	7.303	5.21081	7.16972	0.0
7.0577	86.1332	-0.92	0.32	0.00	17.53	7.303	5.21178	7.17106	0.0
7.0677	86.1532	-0.92	0.32	0.00	17.53	7.303	5.21276	7.17240	2.0
7.0777	86.1732	-0.92	0.32	0.00	17.53	7.303	5.21373	7.17374	4.0
7.0877	86.1932	-0.92	0.32	0.00	17.53	7.303	5.21470	7.17508	0.0
7.0977	86.2132	-0.92	0.32	0.00	17.53	7.303	5.21568	7.17642	0.0
7.1077	86.2332	-0.92	0.32	0.00	17.53	7.303	5.21665	7.17775	2.0
7.1177	86.2532	-0.92	0.32	0.00	17.53	7.303	5.21762	7.17909	0.0
7.1277	86.2732	-0.92	0.32	0.00	17.53	7.303	5.21859	7.18043	0.0
7.1377	86.2932	-0.92	0.32	0.00	17.53	7.303	5.21956	7.18177	0.0
7.1477	86.3132	-0.92	0.32	0.00	17.53	7.303	5.22054	7.18310	4.0
7.1577	86.3332	-0.92	0.32	0.00	17.53	7.303	5.22151	7.18444	0.0
7.1677	86.3532	-0.92	0.32	0.00	17.53	7.303	5.22248	7.18578	0.0
7.1777	86.3732	-0.92	0.32	0.00	17.53	7.303	5.22345	7.18711	4.0
7.1877	86.3932	-0.92	0.32	0.00	17.53	7.303	5.22442	7.18845	2.0
7.1977	86.4132	-0.92	0.32	0.00	17.53	7.303	5.22539	7.18979	0.0
7.2077	86.4332	-0.92	0.32	0.00	17.53	7.303	5.22636	7.19112	0.0
7.2177	86.4532	-0.92	0.32	0.00	17.53	7.303	5.22733	7.19246	0.0
7.2277	86.4732	-0.92	0.32	0.00	17.53	7.303	5.22830	7.19379	0.0
7.2377	86.4932	-0.92	0.32	0.00	17.53	7.303	5.22928	7.19513	2.0
7.2477	86.5132	-0.92	0.32	0.00	17.53	7.303	5.23025	7.19646	2.0
7.2577	86.5332	-0.92	0.32	0.00	17.53	7.303	5.23122	7.19780	0.0
7.2677	86.5532	-0.92	0.32	0.00	17.53	7.303	5.23219	7.19913	4.0
7.2777	86.5732	-0.92	0.32	0.00	17.53	7.303	5.23316	7.20047	6.0
7.2877	86.5932	-0.92	0.32	0.00	17.53	7.303	5.23412	7.20180	0.0
7.2977	86.6132	-0.92	0.32	0.00	17.53	7.303	5.23509	7.20314	0.0
7.3077	86.6332	-0.92	0.32	0.00	17.53	7.303	5.23606	7.20447	0.0
7.3177	86.6532	-0.92	0.32	0.00	17.53	7.303	5.23703	7.20580	0.0
7.3277	86.6732	-0.92	0.32	0.00	17.53	7.303	5.23800	7.20714	4.0
7.3377	86.6932	-0.92	0.32	0.00	17.53	7.303	5.23897	7.20847	4.0
7.3477	86.7132	-0.92	0.32	0.00	17.53	7.303	5.23994	7.20980	4.0
7.3577	86.7332	-0.92	0.32	0.00	17.53	7.303	5.24091	7.21113	2.0
7.3677	86.7532	-0.92	0.32	0.00	17.53	7.303	5.24188	7.21247	0.0
7.3777	86.7732	-0.92	0.32	0.00	17.53	7.303	5.24284	7.21380	2.0
7.3877	86.7932	-0.92	0.32	0.00	17.53	7.303	5.24381	7.21513	0.0
7.3977	86.8132	-0.92	0.32	0.00	17.53	7.303	5.24478	7.21646	2.0
7.4077	86.8332	-0.92	0.32	0.00	17.53	7.303	5.24575	7.21779	0.0
7.4177	86.8532	-0.92	0.32	0.00	17.53	7.303	5.24672	7.21913	2.0
7.4277	86.8732	-0.92	0.32	0.00	17.53	7.303	5.24768	7.22046	6.0
7.4377	86.8932	-0.92	0.32	0.00	17.53	7.303	5.24865	7.22179	0.0
7.4477	86.9132	-0.92	0.32	0.00	17.53	7.303	5.24962	7.22312	0.0
7.4577	86.9332	-0.92	0.32	0.00	17.53	7.303	5.25058	7.22445	0.0
7.4677	86.9532	-0.92	0.32	0.00	17.53	7.303	5.25155	7.22578	0.0
7.4777	86.9732	-0.92	0.32	0.00	17.53	7.303	5.25252	7.22711	0.0
7.4877	86.9932	-0.92	0.32	0.00	17.53	7.303	5.25348	7.22844	2.0
7.4977	87.0132	-0.92	0.32	0.00	17.53	7.303	5.25445	7.22977	0.0
7.5077	87.0332	-0.92	0.32	0.00	17.53	7.303	5.25542	7.23110	0.0
7.5177	87.0532	-0.92	0.32	0.00	17.53	7.303	5.25638	7.23243	0.0
7.5277	87.0732	-0.92	0.32	0.00	17.53	7.303	5.25735	7.23376	8.0
7.5377	87.0932	-0.92	0.32	0.00	17.53	7.303	5.25831	7.23508	2.0
7.5477	87.1132	-0.92	0.32	0.00	17.53	7.303	5.25928	7.23641	0.0
7.5577	87.1332	-0.92	0.32	0.00	17.53	7.303	5.26024	7.23774	0.0
7.5677	87.1532	-0.92	0.32	0.00	17.53	7.303	5.26121	7.23907	0.0
7.5777	87.1732	-0.92	0.32	0.00	17.53	7.303	5.26217	7.24040	0.0
7.5877	87.1932	-0.92	0.32	0.00	17.53	7.303	5.26314	7.24172	2.0
7.5977	87.2132	-0.92	0.32	0.00	17.53	7.303	5.26410	7.24305	0.0
7.6077	87.2332	-0.92	0.32	0.00	17.53	7.303	5.26507	7.24438	2.0
7.6177	87.2532	-0.92	0.32	0.00	17.53	7.303	5.26603	7.24570	0.0
7.6277	87.2732	-0.92	0.32	0.00	17.53	7.303	5.26700	7.24703	6.0
7.6377	87.2932	-0.92	0.32	0.00	17.53	7.303	5.26796	7.24836	0.0
7.6477	87.3132	-0.92	0.32	0.00	17.53	7.303	5.26892	7.24968	0.0
7.6577	87.3332	-0.92	0.32	0.00	17.53	7.303	5.26989	7.25101	2.0
7.6677	87.3532	-0.92	0.32	0.00	17.53	7.303	5.27085	7.25234	0.0
7.6777	87.3732	-0.92	0.32	0.00	17.53	7.303	5.27181	7.25366	0.0
7.6877	87.3932	-0.92	0.32	0.00	17.53	7.303	5.27278	7.25499	0.0
7.6977	87.4132	-0.92	0.32	0.00	17.53	7.303	5.27374	7.25631	0.0
7.7077	87.4332	-0.92	0.32	0.00	17.53	7.303	5.27470	7.25764	0.0
7.7177	87.4532	-0.92	0.32	0.00	17.53	7.303	5.27567	7.25896	2.0
7.7277	87.4732	-0.92	0.32	0.00	17.53	7.303	5.27663	7.26029	2.0
7.7377	87.4932	-0.92	0.32	0.00	17.53	7.303	5.27759	7.26161	0.0
7.7477	87.5132	-0.92	0.32	0.00	17.53	7.303	5.27855	7.26293	0.0
7.7577	87.5332	-0.92	0.32	0.00	17.53	7.303	5.27952	7.26426	0.0
7.7677	87.5532	-0.92	0.32	0.00	17.53	7.303	5.28048	7.26558	0.0
7.7777	87.5732	-0.92	0.32	0.00	17.53	7.303	5.28144	7.26690	4.0
7.7877	87.5932	-0.92	0.32	0.00	17.53	7.303	5.28240	7.26823	2.0
7.7977	87.6132	-0.92	0.32	0.00	17.53	7.303	5.28336	7.26955	2.0
7.8077	87.6332	-0.92	0.32	0.00	17.53	7.303	5.28432	7.27087	0.0
7.8177	87.6532	-0.92	0.32	0.00	17.53	7.303	5.28529	7.27220	2.0
7.8277	87.6732	-0.92	0.32	0.00	17.53	7.303	5.28625	7.27352	0.0
7.8377	87.6932	-0.92	0.32	0.00	17.53	7.303	5.28721	7.27484	0.0
7.8477	87.7132	-0.92	0.32	0.00	17.53	7.303	5.28817	7.27616	0.0
7.8577	87.7332	-0.92	0.32	0.00	17.53	7.303	5.28913	7.27748	2.0
7.8677	87.7532	-0.92	0.32	0.00	17.53	7.303	5.29009	7.27880	4.0
7.8777	87.7732	-0.92	0.32	0.00	17.53	7.303	5.29105	7.28013	0.0
7.8877	87.7932	-0.92	0.32	0.00	17.53	7.303	5.29201	7.28145	4.0
7.8977	87.8132	-0.92	0.32	0.00	17.53	7.303	5.29297	7.28277	4.0
7.9077	87.8332	-0.92	0.32	0.00	17.53	7.303	5.29393	7.28409	0.0
7.9177	87.8532	-0.92	0.32	0.00	17.53	7.303	5.29489	7.28541	0.0
7.9277	87.8732	-0.92	0.32	0.00	17.53	7.303	5.29585	7.28673	2.0
7.9377	87.8932	-0.92	0.32	0.00	17.53	7.303	5.29681	7.28805	6.0
7.9477	87.9132	-0.92	0.32	0.00	17.53	7.303	5.29777	7.28937	2.0
7.9577	87.9332	-0.92	0.32	0.00	17.53	7.303	5.29872	7.29069	2.0
7.9677	87.9532	-0.92	0.32	0.00	17.53	7.303	5.29968	7.29201	2.0
7.9777	87.9732	-0.92	0.32	0.00	17.53	7.303	5.30064	7.29332	2.0
7.9877	87.9932	-0.92	0.32	0.00	17.53	7.303	5.30160	7.29464	2.0
7.9977	88.0132	-0.92	0.32	0.00	17.53	7.303	5.30256	7.29596	0.0
8.0077	88.0332	-0.92	0.32	0.00	17.53	7.303	5.30352	7.29728	2.0
8.0177	88.0532	-0.92	0.32	0.00	17.53	7.303	5.30447	7.29860	0.0
8.0277	88.0732	-0.92	0.32	0.00	17.53	7.303	5.30543	7.29992	2.0
8.0377	88.0932	-0.92	0.32	0.00	17.53	7.303	5.30639	7.30123	2.0
8.0477	88.1132	-0.92	0.32	0.00	17.53	7.303	5.30735	7.30255	4.0
8.0577	88.1332	-0.92	0.32	0.00	17.53	7.303	5.30830	7.30387	2.0
8.0677	88.1532	-0.92	0.32	0.00	17.53	7.303	5.30926	7.30518	0.0
8.0777	88.1732	-0.92	0.32	0.00	17.53	7.303	5.31022	7.30650	0.0
8.0877	88.1932	-0.92	0.32	0.00	17.53	7.303	5.31117	7.30782	2.0
8.0977	88.2132	-0.92	0.32	0.00	17.53	7.303	5.31213	7.30913	2.0
8.1077	88.2332	-0.92	0.32	0.00	17.53	7.303	5.31309	7.31045	2.0
8.1177	88.2532	-0.92	0.32	0.00	17.53	7.303	5.31404	7.31176	0.0
8.1277	88.2732	-0.92	0.32	0.00	17.53	7.303	5.31500	7.31308	0.0
8.1377	88.2932	-0.92	0.32	0.00	17.53	7.303	5.31596	7.31440	0.0
8.1477	88.3132	-0.92	0.32	0.00	17.53	7.303	5.31691	7.31571	0.0
8.1577	88.3332	-0.92	0.32	0.00	17.53	7.303	5.31787	7.31703	0.0
8.1677	88.3532	-0.92	0.32	0.00	17.53	7.303	5.31882	7.31834	2.0
8.1777	88.3732	-0.92	0.32	0.00	17.53	7.303	5.31978	7.31965	0.0
8.1877	88.3932	-0.92	0.32	0.00	17.53	7.303	5.32073	7.32097	0.0
8.1977	88.4132	-0.92	0.32	0.00	17.53	7.303	5.32169	7.32228	0.0
8.2077	88.4332	-0.92	0.32	0.00	17.53	7.303	5.32264	7.32360	2.0
8.2177	88.4532	-0.92	0.32	0.00	17.53	7.303	5.32360	7.32491	0.0
8.2277	88.4732	-0.92	0.32	0.00	17.53	7.303	5.32455	7.32622	0.0
8.2377	88.4932	-0.92	0.32	0.00	17.53	7.303	5.32551	7.32754	0.0
8.2477	88.5132	-0.92	0.32	0.00	17.53	7.303	5.32646	7.32885	2.0
8.2577	88.5332	-0.92	0.32	0.00	17.53	7.303	5.32741	7.33016	0.0
8.2677	88.5532	-0.92	0.32	0.00	17.53	7.303	5.32837	7.33147	0.0
8.2777	88.5732	-0.92	0.32	0.00	17.53	7.303	5.32932	7.33279	2.0
8.2877	88.5932	-0.92	0.32	0.00	17.53	7.303	5.33028	7.33410	4.0
8.2977	88.6132	-0.92	0.32	0.00	17.53	7.303	5.33123	7.33541	2.0
8.3077	88.6332	-0.92	0.32	0.00	17.53	7.303	5.33218	7.33672	0.0
8.3177	88.6532	-0.92	0.32	0.00	17.53	7.303	5.33314	7.33803	4.0
8.3277	88.6732	-0.92	0.32	0.00	17.53	7.303	5.33409	7.33934	2.0
8.3377	88.6932	-0.92	0.32	0.00	17.53	7.303	5.33504	7.34066	2.0
8.3477	88.7132	-0.92	0.32	0.00	17.53	7.303	5.33599	7.34197	0.0
8.3577	88.7332	-0.92	0.32	0.00	17.53	7.303	5.33695	7.34328	2.0
8.3677	88.7532	-0.92	0.32	0.00	17.53	7.303	5.33790	7.34459	2.0
8.3777	88.7732	-0.92	0.32	0.00	17.53	7.303	5.33885	7.34590	6.0
8.3877	88.7932	-0.92	0.32	0.00	17.53	7.303	5.33980	7.34721	0.0
8.3977	88.8132	-0.92	0.32	0.00	17.53	7.303	5.34075	7.34852	2.0
8.4077	88.8332	-0.92	0.32	0.00	17.53	7.303	5.34171	7.34983	2.0
8.4177	88.8532	-0.92	0.32	0.00	17.53	7.303	5.34266	7.35113	4.0
8.4277	88.8732	-0.92	0.32	0.00	17.53	7.303	5.34361	7.35244	0.0
8.4377	88.8932	-0.92	0.32	0.00	17.53	7.303	5.34456	7.35375	0.0
8.4477	88.9132	-0.92	0.32	0.00	17.53	7.303	5.34551	7.35506	0.0
8.4577	88.9332	-0.92	0.32	0.00	17.53	7.303	5.34646	7.35637	0.0
8.4677	88.9532	-0.92	0.32	0.00	17.53	7.303	5.34741	7.35768	2.0
8.4777	88.9732	-0.92	0.32	0.00	17.53	7.303	5.34836	7.35898	0.0
8.4877	88.9932	-0.92	0.32	0.00	17.53	7.303	5.34931	7.36029	0.0
8.4977	89.0132	-0.92	0.32	0.00	17.53	7.303	5.35026	7.36160	4.0

6.5377	85.0532	-0.92	0.32	0.00	17.53	7.303	5.15652	7.10024	2.0
6.5477	85.0732	-0.92	0.32	0.00	17.53	7.303	5.15750	7.10159	4.0
6.5577	85.0932	-0.92	0.32	0.00	17.53	7.303	5.15849	7.10294	2.0
6.5677	85.1132	-0.92	0.32	0.00	17.53	7.303	5.15947	7.10429	2.0
6.5777	85.1332	-0.92	0.32	0.00	17.53	7.303	5.16045	7.10564	0.0
6.5877	85.1532	-0.92	0.32	0.00	17.53	7.303	5.16143	7.10699	2.0
6.5977	85.1732	-0.92	0.32	0.00	17.53	7.303	5.16241	7.10834	0.0
6.6077	85.1932	-0.92	0.32	0.00	17.53	7.303	5.16339	7.10969	2.0
6.6177	85.2132	-0.92	0.32	0.00	17.53	7.303	5.16437	7.11104	0.0
6.6277	85.2332	-0.92	0.32	0.00	17.53	7.303	5.16535	7.11239	0.0
6.6377	85.2532	-0.92	0.32	0.00	17.53	7.303	5.16633	7.11374	2.0
6.6477	85.2732	-0.92	0.32	0.00	17.53	7.303	5.16731	7.11509	4.0
6.6577	85.2932	-0.92	0.32	0.00	17.53	7.303	5.16829	7.11643	0.0
6.6677	85.3132	-0.92	0.32	0.00	17.53	7.303	5.16927	7.11778	0.0
6.6777	85.3332	-0.92	0.32	0.00	17.53	7.303	5.17024	7.11913	0.0
6.6877	85.3532	-0.92	0.32	0.00	17.53	7.303	5.17122	7.12048	0.0
6.6977	85.3732	-0.92	0.32	0.00	17.53	7.303	5.17220	7.12183	0.0
6.7077	85.3932	-0.92	0.32	0.00	17.53	7.303	5.17318	7.12317	2.0
6.7177	85.4132	-0.92	0.32	0.00	17.53	7.303	5.17416	7.12452	0.0
6.7277	85.4332	-0.92	0.32	0.00	17.53	7.303	5.17514	7.12587	0.0
6.7377	85.4532	-0.92	0.32	0.00	17.53	7.303	5.17612	7.12722	4.0
6.7477	85.4732	-0.92	0.32	0.00	17.53	7.303	5.17709	7.12856	0.0
6.7577	85.4932	-0.92	0.32	0.00	17.53	7.303	5.17807	7.12991	0.0
6.7677	85.5132	-0.92	0.32	0.00	17.53	7.303	5.17905	7.13126	0.0
6.7777	85.5332	-0.92	0.32	0.00	17.53	7.303	5.18003	7.13260	0.0
6.7877	85.5532	-0.92	0.32	0.00	17.53	7.303	5.18100	7.13395	0.0
6.7977	85.5732	-0.92	0.32	0.00	17.53	7.303	5.18198	7.13529	2.0
6.8077	85.5932	-0.92	0.32	0.00	17.53	7.303	5.18296	7.13664	0.0
6.8177	85.6132	-0.92	0.32	0.00	17.53	7.303	5.18394	7.13798	2.0
6.8277	85.6332	-0.92	0.32	0.00	17.53	7.303	5.18491	7.13933	2.0
6.8377	85.6532	-0.92	0.32	0.00	17.53	7.303	5.18589	7.14067	0.0
6.8477	85.6732	-0.92	0.32	0.00	17.53	7.303	5.18687	7.14202	2.0
[...]
9.2777	86.6932	-0.92	0.32	0.00	17.53	7.303	4.99194	7.38169	0.0
9.2877	86.7132	-0.92	0.32	0.00	17.53	7.303	4.99286	7.38306	0.0
9.2977	86.7332	-0.92	0.32	0.00	17.53	7.303	4.99379	7.38442	2.0
9.3077	86.7532	-0.92	0.32	0.00	17.53	7.303	4.99471	7.38579	2.0
9.3177	86.7732	-0.92	0.32	0.00	17.53	7.303	4.99563	7.38715	0.0
9.3277	86.7932	-0.92	0.32	0.00	17.53	7.303	4.99655	7.38851	0.0
9.3377	86.8132	-0.92	0.32	0.00	17.53	7.303	4.99748	7.38988	0.0
9.3477	86.8332	-0.92	0.32	0.00	17.53	7.303	4.99840	7.39124	2.0
9.3577	86.8532	-0.92	0.32	0.00	17.53	7.303	4.99932	7.39260	0.0
9.3677	86.8732	-0.92	0.32	0.00	17.53	7.303	5.00024	7.39397	0.0
9.3777	86.8932	-0.92	0.32	0.00	17.53	7.303	5.00116	7.39533	2.0
9.3877	86.9132	-0.92	0.32	0.00	17.53	7.303	5.00208	7.39669	2.0
9.3977	86.9332	-0.92	0.32	0.00	17.53	7.303	5.00301	7.39806	2.0
9.4077	86.9532	-0.92	0.32	0.00	17.53	7.303	5.00393	7.39942	0.0
9.4177	86.9732	-0.92	0.32	0.00	17.53	7.303	5.00485	7.40078	0.0
9.4277	86.9932	-0.92	0.32	0.00	17.53	7.303	5.00577	7.40214	0.0
9.4377	87.0132	-0.92	0.32	0.00	17.53	7.303	5.00669	7.40350	4.0
9.4477	87.0332	-0.92	0.32	0.00	17.53	7.303	5.00761	7.40486	2.0
9.4577	87.0532	-0.92	0.32	0.00	17.53	7.303	5.00853	7.40622	2.0
9.4677	87.0732	-0.92	0.32	0.00	17.53	7.303	5.00945	7.40759	2.0
9.4777	87.0932	-0.92	0.32	0.00	17.53	7.303	5.01037	7.40895	2.0
9.4877	87.1132	-0.92	0.32	0.00	17.53	7.303	5.01129	7.41031	2.0
9.4977	87.1332	-0.92	0.32	0.00	17.53	7.303	5.01221	7.41167	2.0
9.5077	87.1532	-0.92	0.32	0.00	17.53	7.303	5.01313	7.41303	4.0
9.5177	87.1732	-0.92	0.32	0.00	17.53	7.303	5.01405	7.41439	2.0
9.5277	87.1932	-0.92	0.32	0.00	17.53	7.303	5.01497	7.41575	2.0
9.5377	87.2132	-0.92	0.32	0.00	17.53	7.303	5.01589	7.41710	2.0
9.5477	87.2332	-0.92	0.32	0.00	17.53	7.303	5.01681	7.41846	0.0
9.5577	87.2532	-0.92	0.32	0.00	17.53	7.303	5.01773	7.41982	2.0
9.5677	87.2732	-0.92	0.32	0.00	17.53	7.303	5.01864	7.42118	0.0
9.5777	87.2932	-0.92	0.32	0.00	17.53	7.303	5.01956	7.42254	2.0
9.5877	87.3132	-0.92	0.32	0.00	17.53	7.303	5.02048	7.42390	2.0
9.5977	87.3332	-0.92	0.32	0.00	17.53	7.303	5.02140	7.42525	0.0
9.6077	87.3532	-0.92	0.32	0.00	17.53	7.303	5.02232	7.42661	0.0
9.6177	87.3732	-0.92	0.32	0.00	17.53	7.303	5.02324	7.42797	2.0
9.6277	87.3932	-0.92	0.32	0.00	17.53	7.303	5.02415	7.42933	2.0
9.6377	87.4132	-0.92	0.32	0.00	17.53	7.303	5.02507	7.43068	6.0
9.6477	87.4332	-0.92	0.32	0.00	17.53	7.303	5.02599	7.43204	2.0
9.6577	87.4532	-0.92	0.32	0.00	17.53	7.303	5.02691	7.43340	0.0
9.6677	87.4732	-0.92	0.32	0.00	17.53	7.303	5.02782	7.43475	2.0
9.6777	87.4932	-0.92	0.32	0.00	17.53	7.303	5.02874	7.43611	2.0
9.6877	87.5132	-0.92	0.32	0.00	17.53	7.303	5.02966	7.43747	0.0
9.6977	87.5332	-0.92	0.32	0.00	17.53	7.303	5.03057	7.43882	0.0
9.7077	87.5532	-0.92	0.32	0.00	17.53	7.303	5.03149	7.44018	2.0
9.7177	87.5732	-0.92	0.32	0.00	17.53	7.303	5.03241	7.44153	4.0
9.7277	87.5932	-0.92	0.32	0.00	17.53	7.303	5.03332	7.44289	0.0
9.7377	87.6132	-0.92	0.32	0.00	17.53	7.303	5.03424	7.44424	4.0
9.7477	87.6332	-0.92	0.32	0.00	17.53	7.303	5.03516	7.44560	2.0
9.7577	87.6532	-0.92	0.32	0.00	17.53	7.303	5.03607	7.44695	2.0
9.7677	87.6732	-0.92	0.32	0.00	17.53	7.303	5.03699	7.44830	4.0
9.7777	87.6932	-0.92	0.32	0.00	17.53	7.303	5.03790	7.44966	0.0
9.7877	87.7132	-0.92	0.32	0.00	17.53	7.303	5.03882	7.45101	2.0
9.7977	87.7332	-0.92	0.32	0.00	17.53	7.303	5.03973	7.45236	0.0
9.8077	87.7532	-0.92	0.32	0.00	17.53	7.303	5.04065	7.45372	0.0
9.8177	87.7732	-0.92	0.32	0.00	17.53	7.303	5.04156	7.45507	0.0
9.8277	87.7932	-0.92	0.32	0.00	17.53	7.303	5.04248	7.45642	4.0
9.8377	87.8132	-0.92	0.32	0.00	17.53	7.303	5.04339	7.45777	4.0
9.8477	87.8332	-0.92	0.32	0.00	17.53	7.303	5.04431	7.45913	6.0
9.8577	87.8532	-0.92	0.32	0.00	17.53	7.303	5.04522	7.46048	2.0
9.8677	87.8732	-0.92	0.32	0.00	17.53	7.303	5.04613	7.46183	0.0
9.8777	87.8932	-0.92	0.32	0.00	17.53	7.303	5.04705	7.46318	0.0
9.8877	87.9132	-0.92	0.32	0.00	17.53	7.303	5.04796	7.46453	0.0
9.8977	87.9332	-0.92	0.32	0.00	17.53	7.303	5.04888	7.46588	0.0
9.9077	87.9532	-0.92	0.32	0.00	17.53	7.303	5.04979	7.46724	6.0
9.9177	87.9732	-0.92	0.32	0.00	17.53	7.303	5.05070	7.46859	0.0
9.9277	87.9932	-0.92	0.32	0.00	17.53	7.303	5.05162	7.46994	2.0
9.9377	88.0132	-0.92	0.32	0.00	17.53	7.303	5.05253	7.47129	0.0
9.9477	88.0332	-0.92	0.32	0.00	17.53	7.303	5.05344	7.47264	0.0
9.9577	88.0532	-0.92	0.32	0.00	17.53	7.303	5.05435	7.47399	0.0
9.9677	88.0732	-0.92	0.32	0.00	17.53	7.303	5.05527	7.47534	2.0
9.9777	88.0932	-0.92	0.32	0.00	17.53	7.303	5.05618	7.47668	0.0
9.9877	88.1132	-0.92	0.32	0.00	17.53	7.303	5.05709	7.47803	0.0
9.9977	88.1332	-0.92	0.32	0.00	17.53	7.303	5.05800	7.47938	0.0
10.0077	88.1532	-0.92	0.32	0.00	17.53	7.303	5.05892	7.48073	2.0
10.0177	88.1732	-0.92	0.32	0.00	17.53	7.303	5.05983	7.48208	2.0
10.0277	88.1932	-0.92	0.32	0.00	17.53	7.303	5.06074	7.48343	0.0
10.0377	88.2132	-0.92	0.32	0.00	17.53	7.303	5.06165	7.48477	0.0
10.0477	88.2332	-0.92	0.32	0.00	17.53	7.303	5.06256	7.48612	0.0
10.0577	88.2532	-0.92	0.32	0.00	17.53	7.303	5.06347	7.48747	0.0
10.0677	88.2732	-0.92	0.32	0.00	17.53	7.303	5.06438	7.48882	0.0
10.0777	88.2932	-0.92	0.32	0.00	17.53	7.303	5.06530	7.49016	2.0
10.0877	88.3132	-0.92	0.32	0.00	17.53	7.303	5.06621	7.49151	0.0
10.0977	88.3332	-0.92	0.32	0.00	17.53	7.303	5.06712	7.49286	0.0
10.1077	88.3532	-0.92	0.32	0.00	17.53	7.303	5.06803	7.49420	0.0
10.1177	88.3732	-0.92	0.32	0.00	17.53	7.303	5.06894	7.49555	2.0
10.1277	88.3932	-0.92	0.32	0.00	17.53	7.303	5.06985	7.49690	2.0
10.1377	88.4132	-0.92	0.32	0.00	17.53	7.303	5.07076	7.49824	0.0
10.1477	88.4332	-0.92	0.32	0.00	17.53	7.303	5.07167	7.49959	2.0
10.1577	88.4532	-0.92	0.32	0.00	17.53	7.303	5.07258	7.50093	2.0
10.1677	88.4732	-0.92	0.32	0.00	17.53	7.303	5.07349	7.50228	2.0
10.1777	88.4932	-0.92	0.32	0.00	17.53	7.303	5.07440	7.50362	0.0
10.1877	88.5132	-0.92	0.32	0.00	17.53	7.303	5.07530	7.50497	0.0
10.1977	88.5332	-0.92	0.32	0.00	17.53	7.303	5.07621	7.50631	0.0
10.2077	88.5532	-0.92	0.32	0.00	17.53	7.303	5.07712	7.50765	0.0
10.2177	88.5732	-0.92	0.32	0.00	17.53	7.303	5.07803	7.50900	2.0
10.2277	88.5932	-0.92	0.32	0.00	17.53	7.303	5.07894	7.51034	0.0
10.2377	88.6132	-0.92	0.32	0.00	17.53	7.303	5.07985	7.51168	2.0
10.2477	88.6332	-0.92	0.32	0.00	17.53	7.303	5.08076	7.51303	0.0
10.2577	88.6532	-0.92	0.32	0.00	17.53	7.303	5.08166	7.51437	8.0
10.2677	88.6732	-0.92	0.32	0.00	17.53	7.303	5.08257	7.51571	0.0
10.2777	88.6932	-0.92	0.32	0.00	17.53	7.303	5.08348	7.51705	0.0
10.2877	88.7132	-0.92	0.32	0.00	17.53	7.303	5.08439	7.51840	0.0
10.2977	88.7332	-0.92	0.32	0.00	17.53	7.303	5.08530	7.51974	0.0
10.3077	88.7532	-0.92	0.32	0.00	17.53	7.303	5.08620	7.52108	2.0
10.3177	88.7732	-0.92	0.32	0.00	17.53	7.303	5.08711	7.52242	4.0
10.3277	88.7932	-0.92	0.32	0.00	17.53	7.303	5.08802	7.52376	0.0
10.3377	88.8132	-0.92	0.32	0.00	17.53	7.303	5.08892	7.52510	2.0
10.3477	88.8332	-0.92	0.32	0.00	17.53	7.303	5.08983	7.52644	0.0
10.3577	88.8532	-0.92	0.32	0.00	17.53	7.303	5.09074	7.52779	0.0
10.3677	88.8732	-0.92	0.32	0.00	17.53	7.303	5.09164	7.52913	2.0
10.3777	88.8932	-0.92	0.32	0.00	17.53	7.303	5.09255	7.53047	2.0
10.3877	88.9132	-0.92	0.32	0.00	17.53	7.303	5.09346	7.53181	0.0
10.3977	88.9332	-0.92	0.32	0.00	17.53	7.303	5.09436	7.53315	0.0
10.4077	88.9532	-0.92	0.32	0.00	17.53	7.303	5.09527	7.53448	6.0
10.4177	88.9732	-0.92	0.32	0.00	17.53	7.303	5.09617	7.53582	0.0
10.4277	88.9932	-0.92	0.32	0.00	17.53	7.303	5.09708	7.53716	0.0
10.4377	89.0132	-0.92	0.32	0.00	17.53	7.303	5.09798	7.53850	2.0

8.4777	85.0532	-0.92	0.32	0.00	17.53	7.303	4.91320	7.27073	0.0
8.4877	85.0732	-0.92	0.32	0.00	17.53	7.303	4.91414	7.27211	0.0
8.4977	85.0932	-0.92	0.32	0.00	17.53	7.303	4.91507	7.27350	2.0
8.5077	85.1132	-0.92	0.32	0.00	17.53	7.303	4.91601	7.27488	2.0
8.5177	85.1332	-0.92	0.32	0.00	17.53	7.303	4.91694	7.27626	4.0
8.5277	85.1532	-0.92	0.32	0.00	17.53	7.303	4.91788	7.27765	0.0
8.5377	85.1732	-0.92	0.32	0.00	17.53	7.303	4.91881	7.27903	2.0
8.5477	85.1932	-0.92	0.32	0.00	17.53	7.303	4.91974	7.28041	0.0
8.5577	85.2132	-0.92	0.32	0.00	17.53	7.303	4.92068	7.28179	0.0
8.5677	85.2332	-0.92	0.32	0.00	17.53	7.303	4.92161	7.28317	0.0
8.5777	85.2532	-0.92	0.32	0.00	17.53	7.303	4.92255	7.28456	0.0
8.5877	85.2732	-0.92	0.32	0.00	17.53	7.303	4.92348	7.28594	2.0
8.5977	85.2932	-0.92	0.32	0.00	17.53	7.303	4.92441	7.28732	0.0
8.6077	85.3132	-0.92	0.32	0.00	17.53	7.303	4.92535	7.28870	0.0
8.6177	85.3332	-0.92	0.32	0.00	17.53	7.303	4.92628	7.29008	4.0
8.6277	85.3532	-0.92	0.32	0.00	17.53	7.303	4.92721	7.29146	4.0
8.6377	85.3732	-0.92	0.32	0.00	17.53	7.303	4.92814	7.29284	4.0
8.6477	85.3932	-0.92	0.32	0.00	17.53	7.303	4.92908	7.29422	0.0
8.6577	85.4132	-0.92	0.32	0.00	17.53	7.303	4.93001	7.29560	2.0
8.6677	85.4332	-0.92	0.32	0.00	17.53	7.303	4.93094	7.29698	0.0
8.6777	85.4532	-0.92	0.32	0.00	17.53	7.303	4.93187	7.29836	6.0
8.6877	85.4732	-0.92	0.32	0.00	17.53	7.303	4.93280	7.29974	0.0
8.6977	85.4932	-0.92	0.32	0.00	17.53	7.303	4.93374	7.30112	2.0
8.7077	85.5132	-0.92	0.32	0.00	17.53	7.303	4.93467	7.30249	2.0
8.7177	85.5332	-0.92	0.32	0.00	17.53	7.303	4.93560	7.30387	2.0
8.7277	85.5532	-0.92	0.32	0.00	17.53	7.303	4.93653	7.30525	4.0
8.7377	85.5732	-0.92	0.32	0.00	17.53	7.303	4.93746	7.30663	0.0
8.7477	85.5932	-0.92	0.32	0.00	17.53	7.303	4.93839	7.30801	2.0
8.7577	85.6132	-0.92	0.32	0.00	17.53	7.303	4.93932	7.30938	2.0
8.7677	85.6332	-0.92	0.32	0.00	17.53	7.303	4.94025	7.31076	2.0
8.7777	85.6532	-0.92	0.32	0.00	17.53	7.303	4.94118	7.31214	0.0
8.7877	85.6732	-0.92	0.32	0.00	17.53	7.303	4.94211	7.31351	4.0
8.7977	85.6932	-0.92	0.32	0.00	17.53	7.303	4.94304	7.31489	0.0
8.8077	85.7132	-0.92	0.32	0.00	17.53	7.303	4.94397	7.31627	0.0
8.8177	85.7332	-0.92	0.32	0.00	17.53	7.303	4.94490	7.31764	0.0
8.8277	85.7532	-0.92	0.32	0.00	17.53	7.303	4.94583	7.31902	0.0
8.8377	85.7732	-0.92	0.32	0.00	17.53	7.303	4.94676	7.32040	4.0
8.8477	85.7932	-0.92	0.32	0.00	17.53	7.303	4.94769	7.32177	2.0
8.8577	85.8132	-0.92	0.32	0.00	17.53	7.303	4.94862	7.32315	0.0
8.8677	85.8332	-0.92	0.32	0.00	17.53	7.303	4.94955	7.32452	0.0
8.8777	85.8532	-0.92	0.32	0.00	17.53	7.303	4.95048	7.32590	0.0
8.8877	85.8732	-0.92	0.32	0.00	17.53	7.303	4.95141	7.32727	2.0
8.8977	85.8932	-0.92	0.32	0.00	17.53	7.303	4.95234	7.32864	2.0
8.9077	85.9132	-0.92	0.32	0.00	17.53	7.303	4.95327	7.33002	0.0
8.9177	85.9332	-0.92	0.32	0.00	17.53	7.303	4.95420	7.33139	4.0
8.9277	85.9532	-0.92	0.32	0.00	17.53	7.303	4.95512	7.33277	0.0
8.9377	85.9732	-0.92	0.32	0.00	17.53	7.303	4.95605	7.33414	0.0
8.9477	85.9932	-0.92	0.32	0.00	17.53	7.303	4.95698	7.33551	2.0
8.9577	86.0132	-0.92	0.32	0.00	17.53	7.303	4.95791	7.33689	2.0
8.9677	86.0332	-0.92	0.32	0.00	17.53	7.303	4.95884	7.33826	0.0
8.9777	86.0532	-0.92	0.32	0.00	17.53	7.303	4.95976	7.33963	0.0
8.9877	86.0732	-0.92	0.32	0.00	17.53	7.303	4.96069	7.34100	4.0
8.9977	86.0932	-0.92	0.32	0.00	17.53	7.303	4.96162	7.34238	0.0
9.0077	86.1132	-0.92	0.32	0.00	17.53	7.303	4.96254	7.34375	6.0
9.0177	86.1332	-0.92	0.32	0.00	17.53	7.303	4.96347	7.34512	0.0
9.0277	86.1532	-0.92	0.32	0.00	17.53	7.303	4.96440	7.34649	0.0
9.0377	86.1732	-0.92	0.32	0.00	17.53	7.303	4.96532	7.34786	4.0
9.0477	86.1932	-0.92	0.32	0.00	17.53	7.303	4.96625	7.34923	2.0
9.0577	86.2132	-0.92	0.32	0.00	17.53	7.303	4.96718	7.35060	0.0
9.0677	86.2332	-0.92	0.32	0.00	17.53	7.303	4.96810	7.35197	4.0
9.0777	86.2532	-0.92	0.32	0.00	17.53	7.303	4.96903	7.35334	2.0
9.0877	86.2732	-0.92	0.32	0.00	17.53	7.303	4.96996	7.35471	4.0
9.0977	86.2932	-0.92	0.32	0.00	17.53	7.303	4.97088	7.35608	0.0
9.1077	86.3132	-0.92	0.32	0.00	17.53	7.303	4.97181	7.35745	0.0
9.1177	86.3332	-0.92	0.32	0.00	17.53	7.303	4.97273	7.35882	0.0
9.1277	86.3532	-0.92	0.32	0.00	17.53	7.303	4.97366	7.36019	2.0
9.1377	86.3732	-0.92	0.32	0.00	17.53	7.303	4.97458	7.36156	0.0
9.1477	86.3932	-0.92	0.32	0.00	17.53	7.303	4.97551	7.36293	2.0
9.1577	86.4132	-0.92	0.32	0.00	17.53	7.303	4.97643	7.36430	4.0
9.1677	86.4332	-0.92	0.32	0.00	17.53	7.303	4.97736	7.36567	2.0
9.1777	86.4532	-0.92	0.32	0.00	17.53	7.303	4.97828	7.36704	0.0
9.1877	86.4732	-0.92	0.32	0.00	17.53	7.303	4.97921	7.36840	2.0
9.1977	86.4932	-0.92	0.32	0.00	17.53	7.303	4.98013	7.36977	0.0
9.2077	86.5132	-0.92	0.32	0.00	17.53	7.303	4.98105	7.37114	2.0
9.2177	86.5332	-0.92	0.32	0.00	17.53	7.303	4.98198	7.37251	0.0
9.2277	86.5532	-0.92	0.32	0.00	17.53	7.303	4.98290	7.37387	0.0
9.2377	86.5732	-0.92	0.32	0.00	17.53	7.303	4.98382	7.37524	0.0
9.2477	86.5932	-0.92	0.32	0.00	17.53	7.303	4.98475	7.37661	2.0
9.2577	86.6132	-0.92	0.32	0.00	17.53	7.303	4.98567	7.37797	2.0
9.2677	86.6332	-0.92	0.32	0.00	17.53	7.303	4.98659	7.37934	2.0
9.2777	86.6532	-0.92	0.32	0.00	17.53	7.303	4.98752	7.38070	6.0
9.2877	86.6732	-0.92	0.32	0.00	17.53	7.303	4.98844	7.38207	2.0
9.2977	86.6932	-0.92	0.32	0.00	17.53	7.303	4.98936	7.38343	4.0
9.3077	86.7132	-0.92	0.32	0.00	17.53	7.303	4.99029	7.38480	0.0
9.3177	86.7332	-0.92	0.32	0.00	17.53	7.303	4.99121	7.38616	0.0
9.3277	86.7532	-0.92	0.32	0.00	17.53	7.303	4.99213	7.38753	0.0
9.3377	86.7732	-0.92	0.32	0.00	17.53	7.303	4.99305	7.38889	0.0
9.3477	86.7932	-0.92	0.32	0.00	17.53	7.303	4.99397	7.39026	0.0
9.3577	86.8132	-0.92	0.32	0.00	17.53	7.303	4.99490	7.39162	0.0
9.3677	86.8332	-0.92	0.32	0.00	17.53	7.303	4.99582	7.39299	4.0
9.3777	86.8532	-0.92	0.32	0.00	17.53	7.303	4.99674	7.39435	2.0
9.3877	86.8732	-0.92	0.32	0.00	17.53	7.303	4.99766	7.39571	0.0
9.3977	86.8932	-0.92	0.32	0.00	17.53	7.303	4.99858	7.39708	0.0
9.4077	86.9132	-0.92	0.32	0.00	17.53	7.303	4.99950	7.39844	2.0
9.4177	86.9332	-0.92	0.32	0.00	17.53	7.303	5.00042	7.39980	4.0
9.4277	86.9532	-0.92	0.32	0.00	17.53	7.303	5.00134	7.40116	6.0
9.4377	86.9732	-0.92	0.32	0.00	17.53	7.303	5.00226	7.40253	0.0
9.4477	86.9932	-0.92	0.32	0.00	17.53	7.303	5.00318	7.40389	2.0
9.4577	87.0132	-0.92	0.32	0.00	17.53	7.303	5.00410	7.40525	0.0
9.4677	87.0332	-0.92	0.32	0.00	17.53	7.303	5.00502	7.40661	0.0
9.4777	87.0532	-0.92	0.32	0.00	17.53	7.303	5.00594	7.40797	0.0
9.4877	87.0732	-0.92	0.32	0.00	17.53	7.303	5.00686	7.40933	2.0
9.4977	87.0932	-0.92	0.32	0.00	17.53	7.303	5.00778	7.41069	0.0
9.5077	87.1132	-0.92	0.32	0.00	17.53	7.303	5.00870	7.41206	0.0
9.5177	87.1332	-0.92	0.32	0.00	17.53	7.303	5.00962	7.41342	2.0
9.5277	87.1532	-0.92	0.32	0.00	17.53	7.303	5.01054	7.41478	4.0
9.5377	87.1732	-0.92	0.32	0.00	17.53	7.303	5.01146	7.41614	4.0
9.5477	87.1932	-0.92	0.32	0.00	17.53	7.303	5.01238	7.41750	0.0
9.5577	87.2132	-0.92	0.32	0.00	17.53	7.303	5.01330	7.41885	2.0
9.5677	87.2332	-0.92	0.32	0.00	17.53	7.303	5.01422	7.42021	0.0
9.5777	87.2532	-0.92	0.32	0.00	17.53	7.303	5.01514	7.42157	4.0
9.5877	87.2732	-0.92	0.32	0.00	17.53	7.303	5.01605	7.42293	2.0
9.5977	87.2932	-0.92	0.32	0.00	17.53	7.303	5.01697	7.42429	4.0
9.6077	87.3132	-0.92	0.32	0.00	17.53	7.303	5.01789	7.42565	0.0
9.6177	87.3332	-0.92	0.32	0.00	17.53	7.303	5.01881	7.42701	2.0
9.6277	87.3532	-0.92	0.32	0.00	17.53	7.303	5.01973	7.42837	2.0
9.6377	87.3732	-0.92	0.32	0.00	17.53	7.303	5.02064	7.42972	0.0
9.6477	87.3932	-0.92	0.32	0.00	17.53	7.303	5.02156	7.43108	2.0
9.6577	87.4132	-0.92	0.32	0.00	17.53	7.303	5.02248	7.43244	0.0
9.6677	87.4332	-0.92	0.32	0.00	17.53	7.303	5.02339	7.43379	2.0
9.6777	87.4532	-0.92	0.32	0.00	17.53	7.303	5.02431	7.43515	2.0
9.6877	87.4732	-0.92	0.32	0.00	17.53	7.303	5.02523	7.43651	2.0
9.6977	87.4932	-0.92	0.32	0.00	17.53	7.303	5.02614	7.43786	0.0
9.7077	87.5132	-0.92	0.32	0.00	17.53	7.303	5.02706	7.43922	0.0
9.7177	87.5332	-0.92	0.32	0.00	17.53	7.303	5.02798	7.44058	0.0
9.7277	87.5532	-0.92	0.32	0.00	17.53	7.303	5.02889	7.44193	2.0
9.7377	87.5732	-0.92	0.32	0.00	17.53	7.303	5.02981	7.44329	4.0
9.7477	87.5932	-0.92	0.32	0.00	17.53	7.303	5.03072	7.44464	0.0
9.7577	87.6132	-0.92	0.32	0.00	17.53	7.303	5.03164	7.44600	0.0
9.7677	87.6332	-0.92	0.32	0.00	17.53	7.303	5.03256	7.44735	2.0
9.7777	87.6532	-0.92	0.32	0.00	17.53	7.303	5.03347	7.44871	2.0
9.7877	87.6732	-0.92	0.32	0.00	17.53	7.303	5.03439	7.45006	4.0
9.7977	87.6932	-0.92	0.32	0.00	17.53	7.303	5.03530	7.45142	2.0
9.8077	87.7132	-0.92	0.32	0.00	17.53	7.303	5.03622	7.45277	4.0
9.8177	87.7332	-0.92	0.32	0.00	17.53	7.303	5.03713	7.45412	2.0
9.8277	87.7532	-0.92	0.32	0.00	17.53	7.303	5.03805	7.45548	0.0
9.8377	87.7732	-0.92	0.32	0.00	17.53	7.303	5.03896	7.45683	2.0
9.8477	87.7932	-0.92	0.32	0.00	17.53	7.303	5.03987	7.45818	4.0
9.8577	87.8132	-0.92	0.32	0.00	17.53	7.303	5.04079	7.45953	0.0
9.8677	87.8332	-0.92	0.32	0.00	17.53	7.303	5.04170	7.46089	4.0
9.8777	87.8532	-0.92	0.32	0.00	17.53	7.303	5.04262	7.46224	2.0
9.8877	87.8732	-0.92	0.32	0.00	17.53	7.303	5.04353	7.46359	0.0
9.8977	87.8932	-0.92	0.32	0.00	17.53	7.303	5.04444	7.46494	0.0
9.9077	87.9132	-0.92	0.32	0.00	17.53	7.303	5.04536	7.46630	0.0
9.9177	87.9332	-0.92	0.32	0.00	17.53	7.303	5.04627	7.46765	2.0
9.9277	87.9532	-0.92	0.32	0.00	17.53	7.303	5.04718	7.46900	0.0
9.9377	87.9732	-0.92	0.32	0.00	17.53	7.303	5.04810	7.47035	2.0
9.9477	87.9932	-0.92	0.32	0.00	17.53	7.303	5.04901	7.47170	2.0
9.9577	88.0132	-0.92	0.32	0.00	17.53	7.303	5.04992	7.47305	2.0
9.9677	88.0332	-0.92	0.32	0.00	17.53	7.303	5.05083	7.47440	2.0
9.9777	88.0532	-0.92	0.32	0.00	17.53	7.303	5.05175	7.47575	0.0
9.9877	88.0732	-0.92	0.32	0.00	17.53	7.303	5.05266	7.47710	0.0
9.9977	88.0932	-0.92	0.32	0.00	17.53	7.303	5.05357	7.47845	0.0
10.0077	88.1132	-0.92	0.32	0.00	17.53	7.303	5.05448	7.47980	0.0
10.0177	88.1332	-0.92	0.32	0.00	17.53	7.303	5.05539	7.48115	0.0
10.0277	88.1532	-0.92	0.32	0.00	17.53	7.303	5.05630	7.48250	2.0
10.0377	88.1732	-0.92	0.32	0.00	17.53	7.303	5.05722	7.48384	0.0
10.0477	88.1932	-0.92	0.32	0.00	17.53	7.303	5.05813	7.48519	6.0
10.0577	88.2132	-0.92	0.32	0.00	17.53	7.303	5.05904	7.48654	0.0
10.0677	88.2332	-0.92	0.32	0.00	17.53	7.303	5.05995	7.48789	0.0
10.0777	88.2532	-0.92	0.32	0.00	17.53	7.303	5.06086	7.48924	0.0
10.0877	88.2732	-0.92	0.32	0.00	17.53	7.303	5.06177	7.49058	4.0
10.0977	88.2932	-0.92	0.32	0.00	17.53	7.303	5.06268	7.49193	0.0
10.1077	88.3132	-0.92	0.32	0.00	17.53	7.303	5.06359	7.49328	2.0
10.1177	88.3332	-0.92	0.32	0.00	17.53	7.303	5.06450	7.49463	0.0
10.1277	88.3532	-0.92	0.32	0.00	17.53	7.303	5.06541	7.49597	2.0
10.1377	88.3732	-0.92	0.32	0.00	17.53	7.303	5.06632	7.49732	0.0
10.1477	88.3932	-0.92	0.32	0.00	17.53	7.303	5.06723	7.49866	0.0
10.1577	88.4132	-0.92	0.32	0.00	17.53	7.303	5.06814	7.50001	2.0
10.1677	88.4332	-0.92	0.32	0.00	17.53	7.303	5.06905	7.50136	0.0
10.1777	88.4532	-0.92	0.32	0.00	17.53	7.303	5.06996	7.50270	2.0
10.1877	88.4732	-0.92	0.32	0.00	17.53	7.303	5.07087	7.50405	0.0
10.1977	88.4932	-0.92	0.32	0.00	17.53	7.303	5.07178	7.50539	0.0
10.2077	88.5132	-0.92	0.32	0.00	17.53	7.303	5.07268	7.50674	0.0
10.2177	88.5332	-0.92	0.32	0.00	17.53	7.303	5.07359	7.50808	0.0
10.2277	88.5532	-0.92	0.32	0.00	17.53	7.303	5.07450	7.50943	2.0
10.2377	88.5732	-0.92	0.32	0.00	17.53	7.303	5.07541	7.51077	0.0
10.2477	88.5932	-0.92	0.32	0.00	17.53	7.303	5.07632	7.51211	2.0
10.2577	88.6132	-0.92	0.32	0.00	17.53	7.303	5.07723	7.51346	2.0
10.2677	88.6332	-0.92	0.32	0.00	17.53	7.303	5.07813	7.51480	0.0
10.2777	88.6532	-0.92	0.32	0.00	17.53	7.303	5.07904	7.51614	0.0
10.2877	88.6732	-0.92	0.32	0.00	17.53	7.303	5.07995	7.51749	2.0
10.2977	88.6932	-0.92	0.32	0.00	17.53	7.303	5.08086	7.51883	0.0
10.3077	88.7132	-0.92	0.32	0.00	17.53	7.303	5.08176	7.52017	2.0
10.3177	88.7332	-0.92	0.32	0.00	17.53	7.303	5.08267	7.52151	2.0
10.3277	88.7532	-0.92	0.32	0.00	17.53	7.303	5.08358	7.52286	2.0
10.3377	88.7732	-0.92	0.32	0.00	17.53	7.303	5.08448	7.52420	2.0
10.3477	88.7932	-0.92	0.32	0.00	17.53	7.303	5.08539	7.52554	2.0
10.3577	88.8132	-0.92	0.32	0.00	17.53	7.303	5.08630	7.52688	2.0
10.3677	88.8332	-0.92	0.32	0.00	17.53	7.303	5.08720	7.52822	4.0
10.3777	88.8532	-0.92	0.32	0.00	17.53	7.303	5.08811	7.52956	0.0
10.3877	88.8732	-0.92	0.32	0.00	17.53	7.303	5.08901	7.53090	2.0
10.3977	88.8932	-0.92	0.32	0.00	17.53	7.303	5.08992	7.53224	2.0
10.4077	88.9132	-0.92	0.32	0.00	17.53	7.303	5.09083	7.53358	0.0
10.4177	88.9332	-0.92	0.32	0.00	17.53	7.303	5.09173	7.53492	0.0
10.4277	88.9532	-0.92	0.32	0.00	17.53	7.303	5.09264	7.53626	0.0
10.4377	88.9732	-0.92	0.32	0.00	17.53	7.303	5.09354	7.53760	2.0
10.4477	88.9932	-0.92	0.32	0.00	17.53	7.303	5.09445	7.53894	2.0
10.4577	89.0132	-0.92	0.32	0.00	17.53	7.303	5.09535	7.54028	0.0