File: Data/113xx/Omega2Theta/2.0deg-2.0deg-rsm-3h10m_11355-as-grown_224_w_000-100.dat
# filename: 2.0deg-2.0deg-rsm-3h10m_11355-as-grown_224.dat
# reflection: (004)
# type: Projection of 100 omega2theta scans
# x-axis: omega2theta
#
# Omega	2Theta	Phi  	Chi   	X    	Y    	Z    	q_para	q_perp	Intensity
# [deg]	[deg] 	[deg]	[deg] 	[mm] 	[mm] 	[mm] 	[nm-1]	[nm-1]	[counts/s]
7.1078	85.0726	0.46	0.10	-30.00	-20.00	7.373	5.08751	7.15128	1.2
7.1178	85.0926	0.46	0.10	-30.00	-20.00	7.373	5.08847	7.15264	1.1
7.1278	85.1126	0.46	0.10	-30.00	-20.00	7.373	5.08944	7.15400	1.4
7.1378	85.1326	0.46	0.10	-30.00	-20.00	7.373	5.09041	7.15536	1.1
7.1478	85.1526	0.46	0.10	-30.00	-20.00	7.373	5.09138	7.15672	1.4
7.1578	85.1726	0.46	0.10	-30.00	-20.00	7.373	5.09234	7.15808	1.2
7.1678	85.1926	0.46	0.10	-30.00	-20.00	7.373	5.09331	7.15944	1.6
7.1778	85.2126	0.46	0.10	-30.00	-20.00	7.373	5.09428	7.16080	1.4
7.1878	85.2326	0.46	0.10	-30.00	-20.00	7.373	5.09524	7.16216	1.2
7.1978	85.2526	0.46	0.10	-30.00	-20.00	7.373	5.09621	7.16352	1.5
7.2078	85.2726	0.46	0.10	-30.00	-20.00	7.373	5.09718	7.16487	1.3
7.2178	85.2926	0.46	0.10	-30.00	-20.00	7.373	5.09814	7.16623	1.5
7.2278	85.3126	0.46	0.10	-30.00	-20.00	7.373	5.09911	7.16759	1.5
7.2378	85.3326	0.46	0.10	-30.00	-20.00	7.373	5.10007	7.16895	1.9
7.2478	85.3526	0.46	0.10	-30.00	-20.00	7.373	5.10104	7.17031	1.5
7.2578	85.3726	0.46	0.10	-30.00	-20.00	7.373	5.10201	7.17166	1.9
7.2678	85.3926	0.46	0.10	-30.00	-20.00	7.373	5.10297	7.17302	1.4
7.2778	85.4126	0.46	0.10	-30.00	-20.00	7.373	5.10394	7.17438	1.4
7.2878	85.4326	0.46	0.10	-30.00	-20.00	7.373	5.10490	7.17573	1.5
7.2978	85.4526	0.46	0.10	-30.00	-20.00	7.373	5.10587	7.17709	1.6
7.3078	85.4726	0.46	0.10	-30.00	-20.00	7.373	5.10683	7.17844	1.7
7.3178	85.4926	0.46	0.10	-30.00	-20.00	7.373	5.10780	7.17980	1.6
7.3278	85.5126	0.46	0.10	-30.00	-20.00	7.373	5.10876	7.18116	1.7
7.3378	85.5326	0.46	0.10	-30.00	-20.00	7.373	5.10972	7.18251	1.6
7.3478	85.5526	0.46	0.10	-30.00	-20.00	7.373	5.11069	7.18387	1.5
7.3578	85.5726	0.46	0.10	-30.00	-20.00	7.373	5.11165	7.18522	1.6
7.3678	85.5926	0.46	0.10	-30.00	-20.00	7.373	5.11262	7.18658	2.1
7.3778	85.6126	0.46	0.10	-30.00	-20.00	7.373	5.11358	7.18793	1.9
7.3878	85.6326	0.46	0.10	-30.00	-20.00	7.373	5.11454	7.18929	1.8
7.3978	85.6526	0.46	0.10	-30.00	-20.00	7.373	5.11551	7.19064	1.9
7.4078	85.6726	0.46	0.10	-30.00	-20.00	7.373	5.11647	7.19199	1.8
7.4178	85.6926	0.46	0.10	-30.00	-20.00	7.373	5.11743	7.19335	1.8
7.4278	85.7126	0.46	0.10	-30.00	-20.00	7.373	5.11840	7.19470	1.8
7.4378	85.7326	0.46	0.10	-30.00	-20.00	7.373	5.11936	7.19605	2.0
7.4478	85.7526	0.46	0.10	-30.00	-20.00	7.373	5.12032	7.19741	2.3
7.4578	85.7726	0.46	0.10	-30.00	-20.00	7.373	5.12128	7.19876	1.6
7.4678	85.7926	0.46	0.10	-30.00	-20.00	7.373	5.12225	7.20011	1.9
7.4778	85.8126	0.46	0.10	-30.00	-20.00	7.373	5.12321	7.20147	2.3
7.4878	85.8326	0.46	0.10	-30.00	-20.00	7.373	5.12417	7.20282	1.7
7.4978	85.8526	0.46	0.10	-30.00	-20.00	7.373	5.12513	7.20417	2.3
7.5078	85.8726	0.46	0.10	-30.00	-20.00	7.373	5.12609	7.20552	2.0
7.5178	85.8926	0.46	0.10	-30.00	-20.00	7.373	5.12705	7.20687	2.4
7.5278	85.9126	0.46	0.10	-30.00	-20.00	7.373	5.12802	7.20822	2.5
7.5378	85.9326	0.46	0.10	-30.00	-20.00	7.373	5.12898	7.20958	2.6
7.5478	85.9526	0.46	0.10	-30.00	-20.00	7.373	5.12994	7.21093	2.8
7.5578	85.9726	0.46	0.10	-30.00	-20.00	7.373	5.13090	7.21228	2.9
7.5678	85.9926	0.46	0.10	-30.00	-20.00	7.373	5.13186	7.21363	2.8
7.5778	86.0126	0.46	0.10	-30.00	-20.00	7.373	5.13282	7.21498	2.8
7.5878	86.0326	0.46	0.10	-30.00	-20.00	7.373	5.13378	7.21633	3.1
7.5978	86.0526	0.46	0.10	-30.00	-20.00	7.373	5.13474	7.21768	2.7
7.6078	86.0726	0.46	0.10	-30.00	-20.00	7.373	5.13570	7.21903	3.3
7.6178	86.0926	0.46	0.10	-30.00	-20.00	7.373	5.13666	7.22038	3.1
7.6278	86.1126	0.46	0.10	-30.00	-20.00	7.373	5.13762	7.22172	3.1
7.6378	86.1326	0.46	0.10	-30.00	-20.00	7.373	5.13858	7.22307	3.7
7.6478	86.1526	0.46	0.10	-30.00	-20.00	7.373	5.13954	7.22442	4.0
7.6578	86.1726	0.46	0.10	-30.00	-20.00	7.373	5.14050	7.22577	3.9
7.6678	86.1926	0.46	0.10	-30.00	-20.00	7.373	5.14146	7.22712	4.6
7.6778	86.2126	0.46	0.10	-30.00	-20.00	7.373	5.14242	7.22847	4.9
7.6878	86.2326	0.46	0.10	-30.00	-20.00	7.373	5.14338	7.22982	6.4
7.6978	86.2526	0.46	0.10	-30.00	-20.00	7.373	5.14434	7.23116	8.1
7.7078	86.2726	0.46	0.10	-30.00	-20.00	7.373	5.14529	7.23251	11.0
7.7178	86.2926	0.46	0.10	-30.00	-20.00	7.373	5.14625	7.23386	18.5
7.7278	86.3126	0.46	0.10	-30.00	-20.00	7.373	5.14721	7.23520	45.9
7.7378	86.3326	0.46	0.10	-30.00	-20.00	7.373	5.14817	7.23655	147.9
7.7478	86.3526	0.46	0.10	-30.00	-20.00	7.373	5.14913	7.23790	678.4
7.7578	86.3726	0.46	0.10	-30.00	-20.00	7.373	5.15008	7.23924	2397.2
7.7678	86.3926	0.46	0.10	-30.00	-20.00	7.373	5.15104	7.24059	2890.7
7.7778	86.4126	0.46	0.10	-30.00	-20.00	7.373	5.15200	7.24193	1505.3
7.7878	86.4326	0.46	0.10	-30.00	-20.00	7.373	5.15296	7.24328	647.3
7.7978	86.4526	0.46	0.10	-30.00	-20.00	7.373	5.15391	7.24463	324.5
7.8078	86.4726	0.46	0.10	-30.00	-20.00	7.373	5.15487	7.24597	223.8
7.8178	86.4926	0.46	0.10	-30.00	-20.00	7.373	5.15583	7.24732	195.1
7.8278	86.5126	0.46	0.10	-30.00	-20.00	7.373	5.15678	7.24866	190.8
7.8378	86.5326	0.46	0.10	-30.00	-20.00	7.373	5.15774	7.25000	189.7
7.8478	86.5526	0.46	0.10	-30.00	-20.00	7.373	5.15870	7.25135	183.2
7.8578	86.5726	0.46	0.10	-30.00	-20.00	7.373	5.15965	7.25269	184.2
7.8678	86.5926	0.46	0.10	-30.00	-20.00	7.373	5.16061	7.25404	180.0
7.8778	86.6126	0.46	0.10	-30.00	-20.00	7.373	5.16156	7.25538	174.3
7.8878	86.6326	0.46	0.10	-30.00	-20.00	7.373	5.16252	7.25672	172.6
7.8978	86.6526	0.46	0.10	-30.00	-20.00	7.373	5.16348	7.25807	170.4
7.9078	86.6726	0.46	0.10	-30.00	-20.00	7.373	5.16443	7.25941	172.9
7.9178	86.6926	0.46	0.10	-30.00	-20.00	7.373	5.16539	7.26075	171.1
7.9278	86.7126	0.46	0.10	-30.00	-20.00	7.373	5.16634	7.26210	172.4
7.9378	86.7326	0.46	0.10	-30.00	-20.00	7.373	5.16730	7.26344	165.0
7.9478	86.7526	0.46	0.10	-30.00	-20.00	7.373	5.16825	7.26478	165.0
7.9578	86.7726	0.46	0.10	-30.00	-20.00	7.373	5.16921	7.26612	156.1
7.9678	86.7926	0.46	0.10	-30.00	-20.00	7.373	5.17016	7.26746	158.6
7.9778	86.8126	0.46	0.10	-30.00	-20.00	7.373	5.17111	7.26880	151.1
7.9878	86.8326	0.46	0.10	-30.00	-20.00	7.373	5.17207	7.27015	153.3
7.9978	86.8526	0.46	0.10	-30.00	-20.00	7.373	5.17302	7.27149	147.5
8.0078	86.8726	0.46	0.10	-30.00	-20.00	7.373	5.17398	7.27283	139.7
8.0178	86.8926	0.46	0.10	-30.00	-20.00	7.373	5.17493	7.27417	138.9
8.0278	86.9126	0.46	0.10	-30.00	-20.00	7.373	5.17588	7.27551	137.3
8.0378	86.9326	0.46	0.10	-30.00	-20.00	7.373	5.17684	7.27685	132.9
8.0478	86.9526	0.46	0.10	-30.00	-20.00	7.373	5.17779	7.27819	130.2
8.0578	86.9726	0.46	0.10	-30.00	-20.00	7.373	5.17874	7.27953	128.7
8.0678	86.9926	0.46	0.10	-30.00	-20.00	7.373	5.17970	7.28087	122.5
8.0778	87.0126	0.46	0.10	-30.00	-20.00	7.373	5.18065	7.28220	127.2
8.0878	87.0326	0.46	0.10	-30.00	-20.00	7.373	5.18160	7.28354	121.8
8.0978	87.0526	0.46	0.10	-30.00	-20.00	7.373	5.18255	7.28488	121.6
8.1078	87.0726	0.46	0.10	-30.00	-20.00	7.373	5.18351	7.28622	121.6
8.1178	87.0926	0.46	0.10	-30.00	-20.00	7.373	5.18446	7.28756	119.5
8.1278	87.1126	0.46	0.10	-30.00	-20.00	7.373	5.18541	7.28890	120.5
8.1378	87.1326	0.46	0.10	-30.00	-20.00	7.373	5.18636	7.29024	116.5
8.1478	87.1526	0.46	0.10	-30.00	-20.00	7.373	5.18731	7.29157	114.4
8.1578	87.1726	0.46	0.10	-30.00	-20.00	7.373	5.18826	7.29291	112.7
8.1678	87.1926	0.46	0.10	-30.00	-20.00	7.373	5.18921	7.29425	111.9
8.1778	87.2126	0.46	0.10	-30.00	-20.00	7.373	5.19017	7.29558	110.9
8.1878	87.2326	0.46	0.10	-30.00	-20.00	7.373	5.19112	7.29692	105.1
8.1978	87.2526	0.46	0.10	-30.00	-20.00	7.373	5.19207	7.29826	103.7
8.2078	87.2726	0.46	0.10	-30.00	-20.00	7.373	5.19302	7.29959	105.4
8.2178	87.2926	0.46	0.10	-30.00	-20.00	7.373	5.19397	7.30093	102.3
8.2278	87.3126	0.46	0.10	-30.00	-20.00	7.373	5.19492	7.30227	102.0
8.2378	87.3326	0.46	0.10	-30.00	-20.00	7.373	5.19587	7.30360	101.5
8.2478	87.3526	0.46	0.10	-30.00	-20.00	7.373	5.19682	7.30494	100.7
8.2578	87.3726	0.46	0.10	-30.00	-20.00	7.373	5.19777	7.30627	95.8
8.2678	87.3926	0.46	0.10	-30.00	-20.00	7.373	5.19872	7.30761	97.3
8.2778	87.4126	0.46	0.10	-30.00	-20.00	7.373	5.19967	7.30894	97.9
8.2878	87.4326	0.46	0.10	-30.00	-20.00	7.373	5.20062	7.31028	94.0
8.2978	87.4526	0.46	0.10	-30.00	-20.00	7.373	5.20157	7.31161	92.4
8.3078	87.4726	0.46	0.10	-30.00	-20.00	7.373	5.20252	7.31294	91.7
8.3178	87.4926	0.46	0.10	-30.00	-20.00	7.373	5.20347	7.31428	87.6
8.3278	87.5126	0.46	0.10	-30.00	-20.00	7.373	5.20441	7.31561	86.1
8.3378	87.5326	0.46	0.10	-30.00	-20.00	7.373	5.20536	7.31695	86.6
8.3478	87.5526	0.46	0.10	-30.00	-20.00	7.373	5.20631	7.31828	85.9
8.3578	87.5726	0.46	0.10	-30.00	-20.00	7.373	5.20726	7.31961	84.7
8.3678	87.5926	0.46	0.10	-30.00	-20.00	7.373	5.20821	7.32094	86.1
8.3778	87.6126	0.46	0.10	-30.00	-20.00	7.373	5.20916	7.32228	82.6
8.3878	87.6326	0.46	0.10	-30.00	-20.00	7.373	5.21010	7.32361	81.6
8.3978	87.6526	0.46	0.10	-30.00	-20.00	7.373	5.21105	7.32494	80.8
8.4078	87.6726	0.46	0.10	-30.00	-20.00	7.373	5.21200	7.32627	78.0
8.4178	87.6926	0.46	0.10	-30.00	-20.00	7.373	5.21295	7.32760	78.2
8.4278	87.7126	0.46	0.10	-30.00	-20.00	7.373	5.21389	7.32894	76.1
8.4378	87.7326	0.46	0.10	-30.00	-20.00	7.373	5.21484	7.33027	77.6
8.4478	87.7526	0.46	0.10	-30.00	-20.00	7.373	5.21579	7.33160	72.9
8.4578	87.7726	0.46	0.10	-30.00	-20.00	7.373	5.21673	7.33293	72.9
8.4678	87.7926	0.46	0.10	-30.00	-20.00	7.373	5.21768	7.33426	70.4
8.4778	87.8126	0.46	0.10	-30.00	-20.00	7.373	5.21863	7.33559	72.9
8.4878	87.8326	0.46	0.10	-30.00	-20.00	7.373	5.21957	7.33692	70.9
8.4978	87.8526	0.46	0.10	-30.00	-20.00	7.373	5.22052	7.33825	68.1
8.5078	87.8726	0.46	0.10	-30.00	-20.00	7.373	5.22146	7.33958	67.3
8.5178	87.8926	0.46	0.10	-30.00	-20.00	7.373	5.22241	7.34091	65.6
8.5278	87.9126	0.46	0.10	-30.00	-20.00	7.373	5.22336	7.34224	65.4
8.5378	87.9326	0.46	0.10	-30.00	-20.00	7.373	5.22430	7.34357	62.6
8.5478	87.9526	0.46	0.10	-30.00	-20.00	7.373	5.22525	7.34490	60.3
8.5578	87.9726	0.46	0.10	-30.00	-20.00	7.373	5.22619	7.34622	63.4
8.5678	87.9926	0.46	0.10	-30.00	-20.00	7.373	5.22714	7.34755	74.0
8.5778	88.0126	0.46	0.10	-30.00	-20.00	7.373	5.22808	7.34888	156.0
8.5878	88.0326	0.46	0.10	-30.00	-20.00	7.373	5.22903	7.35021	855.7
8.5978	88.0526	0.46	0.10	-30.00	-20.00	7.373	5.22997	7.35153	1954.1
8.6078	88.0726	0.46	0.10	-30.00	-20.00	7.373	5.23091	7.35286	913.4
8.6178	88.0926	0.46	0.10	-30.00	-20.00	7.373	5.23186	7.35419	322.3
8.6278	88.1126	0.46	0.10	-30.00	-20.00	7.373	5.23280	7.35552	110.7
8.6378	88.1326	0.46	0.10	-30.00	-20.00	7.373	5.23375	7.35684	34.7
8.6478	88.1526	0.46	0.10	-30.00	-20.00	7.373	5.23469	7.35817	10.9
8.6578	88.1726	0.46	0.10	-30.00	-20.00	7.373	5.23563	7.35950	6.2
8.6678	88.1926	0.46	0.10	-30.00	-20.00	7.373	5.23658	7.36082	5.6
8.6778	88.2126	0.46	0.10	-30.00	-20.00	7.373	5.23752	7.36215	4.4
8.6878	88.2326	0.46	0.10	-30.00	-20.00	7.373	5.23846	7.36347	3.3
8.6978	88.2526	0.46	0.10	-30.00	-20.00	7.373	5.23941	7.36480	2.3
8.7078	88.2726	0.46	0.10	-30.00	-20.00	7.373	5.24035	7.36612	2.4
8.7178	88.2926	0.46	0.10	-30.00	-20.00	7.373	5.24129	7.36745	2.8
8.7278	88.3126	0.46	0.10	-30.00	-20.00	7.373	5.24223	7.36877	2.4
8.7378	88.3326	0.46	0.10	-30.00	-20.00	7.373	5.24318	7.37010	1.6
8.7478	88.3526	0.46	0.10	-30.00	-20.00	7.373	5.24412	7.37142	2.3
8.7578	88.3726	0.46	0.10	-30.00	-20.00	7.373	5.24506	7.37275	1.8
8.7678	88.3926	0.46	0.10	-30.00	-20.00	7.373	5.24600	7.37407	2.4
8.7778	88.4126	0.46	0.10	-30.00	-20.00	7.373	5.24694	7.37539	1.8
8.7878	88.4326	0.46	0.10	-30.00	-20.00	7.373	5.24788	7.37672	2.0
8.7978	88.4526	0.46	0.10	-30.00	-20.00	7.373	5.24882	7.37804	2.0
8.8078	88.4726	0.46	0.10	-30.00	-20.00	7.373	5.24977	7.37936	1.8
8.8178	88.4926	0.46	0.10	-30.00	-20.00	7.373	5.25071	7.38068	1.4
8.8278	88.5126	0.46	0.10	-30.00	-20.00	7.373	5.25165	7.38201	1.9
8.8378	88.5326	0.46	0.10	-30.00	-20.00	7.373	5.25259	7.38333	1.9
8.8478	88.5526	0.46	0.10	-30.00	-20.00	7.373	5.25353	7.38465	2.1
8.8578	88.5726	0.46	0.10	-30.00	-20.00	7.373	5.25447	7.38597	2.1
8.8678	88.5926	0.46	0.10	-30.00	-20.00	7.373	5.25541	7.38729	1.8
8.8778	88.6126	0.46	0.10	-30.00	-20.00	7.373	5.25635	7.38862	1.9
8.8878	88.6326	0.46	0.10	-30.00	-20.00	7.373	5.25729	7.38994	1.6
8.8978	88.6526	0.46	0.10	-30.00	-20.00	7.373	5.25823	7.39126	1.7
8.9078	88.6726	0.46	0.10	-30.00	-20.00	7.373	5.25917	7.39258	1.7
8.9178	88.6926	0.46	0.10	-30.00	-20.00	7.373	5.26011	7.39390	1.3
8.9278	88.7126	0.46	0.10	-30.00	-20.00	7.373	5.26105	7.39522	1.7
8.9378	88.7326	0.46	0.10	-30.00	-20.00	7.373	5.26199	7.39654	1.7
8.9478	88.7526	0.46	0.10	-30.00	-20.00	7.373	5.26292	7.39786	1.9
8.9578	88.7726	0.46	0.10	-30.00	-20.00	7.373	5.26386	7.39918	1.5
8.9678	88.7926	0.46	0.10	-30.00	-20.00	7.373	5.26480	7.40050	1.6
8.9778	88.8126	0.46	0.10	-30.00	-20.00	7.373	5.26574	7.40182	1.6
8.9878	88.8326	0.46	0.10	-30.00	-20.00	7.373	5.26668	7.40314	1.3
8.9978	88.8526	0.46	0.10	-30.00	-20.00	7.373	5.26762	7.40445	1.5
9.0078	88.8726	0.46	0.10	-30.00	-20.00	7.373	5.26855	7.40577	1.5
9.0178	88.8926	0.46	0.10	-30.00	-20.00	7.373	5.26949	7.40709	1.6
9.0278	88.9126	0.46	0.10	-30.00	-20.00	7.373	5.27043	7.40841	1.4
9.0378	88.9326	0.46	0.10	-30.00	-20.00	7.373	5.27137	7.40973	1.3
9.0478	88.9526	0.46	0.10	-30.00	-20.00	7.373	5.27230	7.41104	1.4
9.0578	88.9726	0.46	0.10	-30.00	-20.00	7.373	5.27324	7.41236	1.8
9.0678	88.9926	0.46	0.10	-30.00	-20.00	7.373	5.27418	7.41368	1.4
9.0778	89.0126	0.46	0.10	-30.00	-20.00	7.373	5.27511	7.41499	1.4
9.0878	89.0326	0.46	0.10	-30.00	-20.00	7.373	5.27605	7.41631	1.5