File: Data/113xx/Omega2Theta/2.0deg-2.0deg-rsm-3h10m_11354-as-grown_224_w_000-100.dat
# filename: 2.0deg-2.0deg-rsm-3h10m_11354-as-grown_224.dat
# reflection: (004)
# type: Projection of 100 omega2theta scans
# x-axis: omega2theta
#
# Omega	2Theta	Phi  	Chi   	X    	Y    	Z    	q_para	q_perp	Intensity
# [deg]	[deg] 	[deg]	[deg] 	[mm] 	[mm] 	[mm] 	[nm-1]	[nm-1]	[counts/s]
6.8865	85.0720	1.74	0.08	10.00	20.00	7.278	5.11502	7.13156	1.8
6.8965	85.0920	1.74	0.08	10.00	20.00	7.278	5.11600	7.13292	1.4
6.9065	85.1120	1.74	0.08	10.00	20.00	7.278	5.11697	7.13428	1.7
6.9165	85.1320	1.74	0.08	10.00	20.00	7.278	5.11794	7.13563	1.4
6.9265	85.1520	1.74	0.08	10.00	20.00	7.278	5.11891	7.13699	1.3
6.9365	85.1720	1.74	0.08	10.00	20.00	7.278	5.11989	7.13834	1.4
6.9465	85.1920	1.74	0.08	10.00	20.00	7.278	5.12086	7.13970	1.5
6.9565	85.2120	1.74	0.08	10.00	20.00	7.278	5.12183	7.14106	1.7
6.9665	85.2320	1.74	0.08	10.00	20.00	7.278	5.12280	7.14241	1.7
6.9765	85.2520	1.74	0.08	10.00	20.00	7.278	5.12377	7.14376	1.6
6.9865	85.2720	1.74	0.08	10.00	20.00	7.278	5.12475	7.14512	1.4
6.9965	85.2920	1.74	0.08	10.00	20.00	7.278	5.12572	7.14647	1.8
7.0065	85.3120	1.74	0.08	10.00	20.00	7.278	5.12669	7.14783	1.8
7.0165	85.3320	1.74	0.08	10.00	20.00	7.278	5.12766	7.14918	1.5
7.0265	85.3520	1.74	0.08	10.00	20.00	7.278	5.12863	7.15054	1.6
7.0365	85.3720	1.74	0.08	10.00	20.00	7.278	5.12960	7.15189	1.7
7.0465	85.3920	1.74	0.08	10.00	20.00	7.278	5.13057	7.15324	1.7
7.0565	85.4120	1.74	0.08	10.00	20.00	7.278	5.13154	7.15460	1.5
7.0665	85.4320	1.74	0.08	10.00	20.00	7.278	5.13251	7.15595	1.5
7.0765	85.4520	1.74	0.08	10.00	20.00	7.278	5.13348	7.15730	1.9
7.0865	85.4720	1.74	0.08	10.00	20.00	7.278	5.13445	7.15865	1.6
7.0965	85.4920	1.74	0.08	10.00	20.00	7.278	5.13542	7.16001	1.8
7.1065	85.5120	1.74	0.08	10.00	20.00	7.278	5.13639	7.16136	2.0
7.1165	85.5320	1.74	0.08	10.00	20.00	7.278	5.13736	7.16271	1.8
7.1265	85.5520	1.74	0.08	10.00	20.00	7.278	5.13833	7.16406	1.7
7.1365	85.5720	1.74	0.08	10.00	20.00	7.278	5.13930	7.16541	1.8
7.1465	85.5920	1.74	0.08	10.00	20.00	7.278	5.14027	7.16676	1.9
7.1565	85.6120	1.74	0.08	10.00	20.00	7.278	5.14124	7.16811	1.8
7.1665	85.6320	1.74	0.08	10.00	20.00	7.278	5.14221	7.16946	1.8
7.1765	85.6520	1.74	0.08	10.00	20.00	7.278	5.14318	7.17081	1.6
7.1865	85.6720	1.74	0.08	10.00	20.00	7.278	5.14414	7.17216	1.8
7.1965	85.6920	1.74	0.08	10.00	20.00	7.278	5.14511	7.17351	1.8
7.2065	85.7120	1.74	0.08	10.00	20.00	7.278	5.14608	7.17486	1.9
7.2165	85.7320	1.74	0.08	10.00	20.00	7.278	5.14705	7.17621	2.2
7.2265	85.7520	1.74	0.08	10.00	20.00	7.278	5.14802	7.17756	1.9
7.2365	85.7720	1.74	0.08	10.00	20.00	7.278	5.14898	7.17891	2.1
7.2465	85.7920	1.74	0.08	10.00	20.00	7.278	5.14995	7.18026	2.1
7.2565	85.8120	1.74	0.08	10.00	20.00	7.278	5.15092	7.18161	2.0
7.2665	85.8320	1.74	0.08	10.00	20.00	7.278	5.15189	7.18296	2.4
7.2765	85.8520	1.74	0.08	10.00	20.00	7.278	5.15285	7.18431	1.8
7.2865	85.8720	1.74	0.08	10.00	20.00	7.278	5.15382	7.18565	2.4
7.2965	85.8920	1.74	0.08	10.00	20.00	7.278	5.15479	7.18700	2.9
7.3065	85.9120	1.74	0.08	10.00	20.00	7.278	5.15575	7.18835	2.4
7.3165	85.9320	1.74	0.08	10.00	20.00	7.278	5.15672	7.18970	2.4
7.3265	85.9520	1.74	0.08	10.00	20.00	7.278	5.15769	7.19104	2.4
7.3365	85.9720	1.74	0.08	10.00	20.00	7.278	5.15865	7.19239	2.3
7.3465	85.9920	1.74	0.08	10.00	20.00	7.278	5.15962	7.19374	2.8
7.3565	86.0120	1.74	0.08	10.00	20.00	7.278	5.16058	7.19508	3.0
7.3665	86.0320	1.74	0.08	10.00	20.00	7.278	5.16155	7.19643	3.1
7.3765	86.0520	1.74	0.08	10.00	20.00	7.278	5.16251	7.19778	3.0
7.3865	86.0720	1.74	0.08	10.00	20.00	7.278	5.16348	7.19912	3.3
7.3965	86.0920	1.74	0.08	10.00	20.00	7.278	5.16444	7.20047	3.2
7.4065	86.1120	1.74	0.08	10.00	20.00	7.278	5.16541	7.20181	3.6
7.4165	86.1320	1.74	0.08	10.00	20.00	7.278	5.16637	7.20316	3.8
7.4265	86.1520	1.74	0.08	10.00	20.00	7.278	5.16734	7.20450	4.0
7.4365	86.1720	1.74	0.08	10.00	20.00	7.278	5.16830	7.20585	3.9
7.4465	86.1920	1.74	0.08	10.00	20.00	7.278	5.16927	7.20719	5.3
7.4565	86.2120	1.74	0.08	10.00	20.00	7.278	5.17023	7.20854	6.4
7.4665	86.2320	1.74	0.08	10.00	20.00	7.278	5.17120	7.20988	6.5
7.4765	86.2520	1.74	0.08	10.00	20.00	7.278	5.17216	7.21123	10.6
7.4865	86.2720	1.74	0.08	10.00	20.00	7.278	5.17312	7.21257	19.1
7.4965	86.2920	1.74	0.08	10.00	20.00	7.278	5.17409	7.21391	41.6
7.5065	86.3120	1.74	0.08	10.00	20.00	7.278	5.17505	7.21526	121.4
7.5165	86.3320	1.74	0.08	10.00	20.00	7.278	5.17601	7.21660	440.0
7.5265	86.3520	1.74	0.08	10.00	20.00	7.278	5.17698	7.21794	1605.6
7.5365	86.3720	1.74	0.08	10.00	20.00	7.278	5.17794	7.21928	2893.0
7.5465	86.3920	1.74	0.08	10.00	20.00	7.278	5.17890	7.22063	2050.7
7.5565	86.4120	1.74	0.08	10.00	20.00	7.278	5.17986	7.22197	892.8
7.5665	86.4320	1.74	0.08	10.00	20.00	7.278	5.18083	7.22331	403.0
7.5765	86.4520	1.74	0.08	10.00	20.00	7.278	5.18179	7.22465	241.4
7.5865	86.4720	1.74	0.08	10.00	20.00	7.278	5.18275	7.22599	191.9
7.5965	86.4920	1.74	0.08	10.00	20.00	7.278	5.18371	7.22733	180.2
7.6065	86.5120	1.74	0.08	10.00	20.00	7.278	5.18468	7.22868	176.7
7.6165	86.5320	1.74	0.08	10.00	20.00	7.278	5.18564	7.23002	174.5
7.6265	86.5520	1.74	0.08	10.00	20.00	7.278	5.18660	7.23136	171.9
7.6365	86.5720	1.74	0.08	10.00	20.00	7.278	5.18756	7.23270	173.7
7.6465	86.5920	1.74	0.08	10.00	20.00	7.278	5.18852	7.23404	166.9
7.6565	86.6120	1.74	0.08	10.00	20.00	7.278	5.18948	7.23538	170.4
7.6665	86.6320	1.74	0.08	10.00	20.00	7.278	5.19044	7.23672	170.8
7.6765	86.6520	1.74	0.08	10.00	20.00	7.278	5.19140	7.23806	172.4
7.6865	86.6720	1.74	0.08	10.00	20.00	7.278	5.19236	7.23940	172.6
7.6965	86.6920	1.74	0.08	10.00	20.00	7.278	5.19332	7.24073	172.9
7.7065	86.7120	1.74	0.08	10.00	20.00	7.278	5.19428	7.24207	172.2
7.7165	86.7320	1.74	0.08	10.00	20.00	7.278	5.19524	7.24341	171.3
7.7265	86.7520	1.74	0.08	10.00	20.00	7.278	5.19620	7.24475	168.6
7.7365	86.7720	1.74	0.08	10.00	20.00	7.278	5.19716	7.24609	167.1
7.7465	86.7920	1.74	0.08	10.00	20.00	7.278	5.19812	7.24743	160.9
7.7565	86.8120	1.74	0.08	10.00	20.00	7.278	5.19908	7.24876	158.8
7.7665	86.8320	1.74	0.08	10.00	20.00	7.278	5.20004	7.25010	154.6
7.7765	86.8520	1.74	0.08	10.00	20.00	7.278	5.20100	7.25144	151.8
7.7865	86.8720	1.74	0.08	10.00	20.00	7.278	5.20196	7.25278	148.8
7.7965	86.8920	1.74	0.08	10.00	20.00	7.278	5.20292	7.25411	141.7
7.8065	86.9120	1.74	0.08	10.00	20.00	7.278	5.20388	7.25545	140.5
7.8165	86.9320	1.74	0.08	10.00	20.00	7.278	5.20484	7.25679	140.0
7.8265	86.9520	1.74	0.08	10.00	20.00	7.278	5.20579	7.25812	134.9
7.8365	86.9720	1.74	0.08	10.00	20.00	7.278	5.20675	7.25946	131.3
7.8465	86.9920	1.74	0.08	10.00	20.00	7.278	5.20771	7.26079	125.3
7.8565	87.0120	1.74	0.08	10.00	20.00	7.278	5.20867	7.26213	129.5
7.8665	87.0320	1.74	0.08	10.00	20.00	7.278	5.20963	7.26346	128.2
7.8765	87.0520	1.74	0.08	10.00	20.00	7.278	5.21058	7.26480	126.4
7.8865	87.0720	1.74	0.08	10.00	20.00	7.278	5.21154	7.26613	125.0
7.8965	87.0920	1.74	0.08	10.00	20.00	7.278	5.21250	7.26747	123.9
7.9065	87.1120	1.74	0.08	10.00	20.00	7.278	5.21346	7.26880	120.5
7.9165	87.1320	1.74	0.08	10.00	20.00	7.278	5.21441	7.27014	123.4
7.9265	87.1520	1.74	0.08	10.00	20.00	7.278	5.21537	7.27147	117.7
7.9365	87.1720	1.74	0.08	10.00	20.00	7.278	5.21633	7.27281	117.6
7.9465	87.1920	1.74	0.08	10.00	20.00	7.278	5.21728	7.27414	113.8
7.9565	87.2120	1.74	0.08	10.00	20.00	7.278	5.21824	7.27547	110.8
7.9665	87.2320	1.74	0.08	10.00	20.00	7.278	5.21920	7.27680	107.1
7.9765	87.2520	1.74	0.08	10.00	20.00	7.278	5.22015	7.27814	105.5
7.9865	87.2720	1.74	0.08	10.00	20.00	7.278	5.22111	7.27947	105.3
7.9965	87.2920	1.74	0.08	10.00	20.00	7.278	5.22206	7.28080	101.9
8.0065	87.3120	1.74	0.08	10.00	20.00	7.278	5.22302	7.28213	102.3
8.0165	87.3320	1.74	0.08	10.00	20.00	7.278	5.22397	7.28347	104.7
8.0265	87.3520	1.74	0.08	10.00	20.00	7.278	5.22493	7.28480	102.3
8.0365	87.3720	1.74	0.08	10.00	20.00	7.278	5.22588	7.28613	100.3
8.0465	87.3920	1.74	0.08	10.00	20.00	7.278	5.22684	7.28746	99.2
8.0565	87.4120	1.74	0.08	10.00	20.00	7.278	5.22779	7.28879	98.6
8.0665	87.4320	1.74	0.08	10.00	20.00	7.278	5.22875	7.29012	92.6
8.0765	87.4520	1.74	0.08	10.00	20.00	7.278	5.22970	7.29145	93.9
8.0865	87.4720	1.74	0.08	10.00	20.00	7.278	5.23066	7.29278	91.8
8.0965	87.4920	1.74	0.08	10.00	20.00	7.278	5.23161	7.29411	91.0
8.1065	87.5120	1.74	0.08	10.00	20.00	7.278	5.23256	7.29544	87.4
8.1165	87.5320	1.74	0.08	10.00	20.00	7.278	5.23352	7.29677	89.4
8.1265	87.5520	1.74	0.08	10.00	20.00	7.278	5.23447	7.29810	86.9
8.1365	87.5720	1.74	0.08	10.00	20.00	7.278	5.23542	7.29943	87.6
8.1465	87.5920	1.74	0.08	10.00	20.00	7.278	5.23638	7.30076	87.1
8.1565	87.6120	1.74	0.08	10.00	20.00	7.278	5.23733	7.30209	85.3
8.1665	87.6320	1.74	0.08	10.00	20.00	7.278	5.23828	7.30342	85.0
8.1765	87.6520	1.74	0.08	10.00	20.00	7.278	5.23924	7.30475	86.4
8.1865	87.6720	1.74	0.08	10.00	20.00	7.278	5.24019	7.30608	83.1
8.1965	87.6920	1.74	0.08	10.00	20.00	7.278	5.24114	7.30740	83.9
8.2065	87.7120	1.74	0.08	10.00	20.00	7.278	5.24209	7.30873	80.7
8.2165	87.7320	1.74	0.08	10.00	20.00	7.278	5.24305	7.31006	80.4
8.2265	87.7520	1.74	0.08	10.00	20.00	7.278	5.24400	7.31139	78.0
8.2365	87.7720	1.74	0.08	10.00	20.00	7.278	5.24495	7.31271	75.4
8.2465	87.7920	1.74	0.08	10.00	20.00	7.278	5.24590	7.31404	79.7
8.2565	87.8120	1.74	0.08	10.00	20.00	7.278	5.24685	7.31537	74.8
8.2665	87.8320	1.74	0.08	10.00	20.00	7.278	5.24780	7.31669	75.5
8.2765	87.8520	1.74	0.08	10.00	20.00	7.278	5.24876	7.31802	74.4
8.2865	87.8720	1.74	0.08	10.00	20.00	7.278	5.24971	7.31934	73.1
8.2965	87.8920	1.74	0.08	10.00	20.00	7.278	5.25066	7.32067	71.0
8.3065	87.9120	1.74	0.08	10.00	20.00	7.278	5.25161	7.32200	70.1
8.3165	87.9320	1.74	0.08	10.00	20.00	7.278	5.25256	7.32332	68.9
8.3265	87.9520	1.74	0.08	10.00	20.00	7.278	5.25351	7.32465	68.6
8.3365	87.9720	1.74	0.08	10.00	20.00	7.278	5.25446	7.32597	65.6
8.3465	87.9920	1.74	0.08	10.00	20.00	7.278	5.25541	7.32730	76.8
8.3565	88.0120	1.74	0.08	10.00	20.00	7.278	5.25636	7.32862	140.2
8.3665	88.0320	1.74	0.08	10.00	20.00	7.278	5.25731	7.32994	513.6
8.3765	88.0520	1.74	0.08	10.00	20.00	7.278	5.25826	7.33127	1132.7
8.3865	88.0720	1.74	0.08	10.00	20.00	7.278	5.25921	7.33259	695.8
8.3965	88.0920	1.74	0.08	10.00	20.00	7.278	5.26016	7.33391	265.5
8.4065	88.1120	1.74	0.08	10.00	20.00	7.278	5.26111	7.33524	93.7
8.4165	88.1320	1.74	0.08	10.00	20.00	7.278	5.26205	7.33656	28.7
8.4265	88.1520	1.74	0.08	10.00	20.00	7.278	5.26300	7.33788	10.1
8.4365	88.1720	1.74	0.08	10.00	20.00	7.278	5.26395	7.33921	6.2
8.4465	88.1920	1.74	0.08	10.00	20.00	7.278	5.26490	7.34053	4.4
8.4565	88.2120	1.74	0.08	10.00	20.00	7.278	5.26585	7.34185	3.9
8.4665	88.2320	1.74	0.08	10.00	20.00	7.278	5.26680	7.34317	3.4
8.4765	88.2520	1.74	0.08	10.00	20.00	7.278	5.26775	7.34449	2.6
8.4865	88.2720	1.74	0.08	10.00	20.00	7.278	5.26869	7.34582	2.0
8.4965	88.2920	1.74	0.08	10.00	20.00	7.278	5.26964	7.34714	2.7
8.5065	88.3120	1.74	0.08	10.00	20.00	7.278	5.27059	7.34846	2.4
8.5165	88.3320	1.74	0.08	10.00	20.00	7.278	5.27154	7.34978	2.0
8.5265	88.3520	1.74	0.08	10.00	20.00	7.278	5.27248	7.35110	1.8
8.5365	88.3720	1.74	0.08	10.00	20.00	7.278	5.27343	7.35242	2.2
8.5465	88.3920	1.74	0.08	10.00	20.00	7.278	5.27438	7.35374	2.1
8.5565	88.4120	1.74	0.08	10.00	20.00	7.278	5.27532	7.35506	2.1
8.5665	88.4320	1.74	0.08	10.00	20.00	7.278	5.27627	7.35638	2.5
8.5765	88.4520	1.74	0.08	10.00	20.00	7.278	5.27722	7.35770	2.2
8.5865	88.4720	1.74	0.08	10.00	20.00	7.278	5.27816	7.35902	1.6
8.5965	88.4920	1.74	0.08	10.00	20.00	7.278	5.27911	7.36034	1.9
8.6065	88.5120	1.74	0.08	10.00	20.00	7.278	5.28005	7.36166	1.9
8.6165	88.5320	1.74	0.08	10.00	20.00	7.278	5.28100	7.36298	1.9
8.6265	88.5520	1.74	0.08	10.00	20.00	7.278	5.28195	7.36429	1.8
8.6365	88.5720	1.74	0.08	10.00	20.00	7.278	5.28289	7.36561	1.8
8.6465	88.5920	1.74	0.08	10.00	20.00	7.278	5.28384	7.36693	1.5
8.6565	88.6120	1.74	0.08	10.00	20.00	7.278	5.28478	7.36825	1.6
8.6665	88.6320	1.74	0.08	10.00	20.00	7.278	5.28573	7.36956	2.2
8.6765	88.6520	1.74	0.08	10.00	20.00	7.278	5.28667	7.37088	1.6
8.6865	88.6720	1.74	0.08	10.00	20.00	7.278	5.28762	7.37220	1.4
8.6965	88.6920	1.74	0.08	10.00	20.00	7.278	5.28856	7.37351	1.3
8.7065	88.7120	1.74	0.08	10.00	20.00	7.278	5.28950	7.37483	1.4
8.7165	88.7320	1.74	0.08	10.00	20.00	7.278	5.29045	7.37615	1.6
8.7265	88.7520	1.74	0.08	10.00	20.00	7.278	5.29139	7.37746	1.4
8.7365	88.7720	1.74	0.08	10.00	20.00	7.278	5.29234	7.37878	1.7
8.7465	88.7920	1.74	0.08	10.00	20.00	7.278	5.29328	7.38010	1.3
8.7565	88.8120	1.74	0.08	10.00	20.00	7.278	5.29422	7.38141	1.5
8.7665	88.8320	1.74	0.08	10.00	20.00	7.278	5.29517	7.38273	1.6
8.7765	88.8520	1.74	0.08	10.00	20.00	7.278	5.29611	7.38404	1.5
8.7865	88.8720	1.74	0.08	10.00	20.00	7.278	5.29705	7.38536	1.5
8.7965	88.8920	1.74	0.08	10.00	20.00	7.278	5.29800	7.38667	1.2
8.8065	88.9120	1.74	0.08	10.00	20.00	7.278	5.29894	7.38798	1.5
8.8165	88.9320	1.74	0.08	10.00	20.00	7.278	5.29988	7.38930	1.6
8.8265	88.9520	1.74	0.08	10.00	20.00	7.278	5.30082	7.39061	1.6
8.8365	88.9720	1.74	0.08	10.00	20.00	7.278	5.30177	7.39193	1.4
8.8465	88.9920	1.74	0.08	10.00	20.00	7.278	5.30271	7.39324	1.6
8.8565	89.0120	1.74	0.08	10.00	20.00	7.278	5.30365	7.39455	1.5
8.8665	89.0320	1.74	0.08	10.00	20.00	7.278	5.30459	7.39587	1.6