File: Data/113xx/Omega2Theta/2.0deg-2.0deg-rsm-3h10m_11358-as-grown_224_w_000-100.dat
# filename: 2.0deg-2.0deg-rsm-3h10m_11358-as-grown_224.dat
# reflection: (004)
# type: Projection of 100 omega2theta scans
# x-axis: omega2theta
#
# Omega	2Theta	Phi  	Chi   	X    	Y    	Z    	q_para	q_perp	Intensity
# [deg]	[deg] 	[deg]	[deg] 	[mm] 	[mm] 	[mm] 	[nm-1]	[nm-1]	[counts/s]
7.0787	85.0734	2.82	0.06	10.00	-20.00	7.326	5.09123	7.14872	1.3
7.0887	85.0934	2.82	0.06	10.00	-20.00	7.326	5.09220	7.15007	1.7
7.0987	85.1134	2.82	0.06	10.00	-20.00	7.326	5.09316	7.15143	1.4
7.1087	85.1334	2.82	0.06	10.00	-20.00	7.326	5.09413	7.15279	1.3
7.1187	85.1534	2.82	0.06	10.00	-20.00	7.326	5.09510	7.15415	1.1
7.1287	85.1734	2.82	0.06	10.00	-20.00	7.326	5.09607	7.15551	1.7
7.1387	85.1934	2.82	0.06	10.00	-20.00	7.326	5.09703	7.15687	1.7
7.1487	85.2134	2.82	0.06	10.00	-20.00	7.326	5.09800	7.15823	1.6
7.1587	85.2334	2.82	0.06	10.00	-20.00	7.326	5.09897	7.15959	1.6
7.1687	85.2534	2.82	0.06	10.00	-20.00	7.326	5.09994	7.16095	1.6
7.1787	85.2734	2.82	0.06	10.00	-20.00	7.326	5.10090	7.16230	1.3
7.1887	85.2934	2.82	0.06	10.00	-20.00	7.326	5.10187	7.16366	1.7
7.1987	85.3134	2.82	0.06	10.00	-20.00	7.326	5.10284	7.16502	1.8
7.2087	85.3334	2.82	0.06	10.00	-20.00	7.326	5.10380	7.16637	1.8
7.2187	85.3534	2.82	0.06	10.00	-20.00	7.326	5.10477	7.16773	1.5
7.2287	85.3734	2.82	0.06	10.00	-20.00	7.326	5.10574	7.16909	1.5
7.2387	85.3934	2.82	0.06	10.00	-20.00	7.326	5.10670	7.17044	1.5
7.2487	85.4134	2.82	0.06	10.00	-20.00	7.326	5.10767	7.17180	1.6
7.2587	85.4334	2.82	0.06	10.00	-20.00	7.326	5.10863	7.17316	1.4
7.2687	85.4534	2.82	0.06	10.00	-20.00	7.326	5.10960	7.17451	1.6
7.2787	85.4734	2.82	0.06	10.00	-20.00	7.326	5.11057	7.17587	1.9
7.2887	85.4934	2.82	0.06	10.00	-20.00	7.326	5.11153	7.17722	2.0
7.2987	85.5134	2.82	0.06	10.00	-20.00	7.326	5.11250	7.17858	1.7
7.3087	85.5334	2.82	0.06	10.00	-20.00	7.326	5.11346	7.17993	1.7
7.3187	85.5534	2.82	0.06	10.00	-20.00	7.326	5.11443	7.18129	1.8
7.3287	85.5734	2.82	0.06	10.00	-20.00	7.326	5.11539	7.18264	1.7
7.3387	85.5934	2.82	0.06	10.00	-20.00	7.326	5.11635	7.18400	2.0
7.3487	85.6134	2.82	0.06	10.00	-20.00	7.326	5.11732	7.18535	1.6
7.3587	85.6334	2.82	0.06	10.00	-20.00	7.326	5.11828	7.18671	1.4
7.3687	85.6534	2.82	0.06	10.00	-20.00	7.326	5.11925	7.18806	1.7
7.3787	85.6734	2.82	0.06	10.00	-20.00	7.326	5.12021	7.18941	1.7
7.3887	85.6934	2.82	0.06	10.00	-20.00	7.326	5.12117	7.19077	1.8
7.3987	85.7134	2.82	0.06	10.00	-20.00	7.326	5.12214	7.19212	1.7
7.4087	85.7334	2.82	0.06	10.00	-20.00	7.326	5.12310	7.19347	1.8
7.4187	85.7534	2.82	0.06	10.00	-20.00	7.326	5.12406	7.19482	1.8
7.4287	85.7734	2.82	0.06	10.00	-20.00	7.326	5.12503	7.19618	2.2
7.4387	85.7934	2.82	0.06	10.00	-20.00	7.326	5.12599	7.19753	2.3
7.4487	85.8134	2.82	0.06	10.00	-20.00	7.326	5.12695	7.19888	2.4
7.4587	85.8334	2.82	0.06	10.00	-20.00	7.326	5.12792	7.20023	2.0
7.4687	85.8534	2.82	0.06	10.00	-20.00	7.326	5.12888	7.20158	2.4
7.4787	85.8734	2.82	0.06	10.00	-20.00	7.326	5.12984	7.20293	2.2
7.4887	85.8934	2.82	0.06	10.00	-20.00	7.326	5.13080	7.20429	2.0
7.4987	85.9134	2.82	0.06	10.00	-20.00	7.326	5.13177	7.20564	2.9
7.5087	85.9334	2.82	0.06	10.00	-20.00	7.326	5.13273	7.20699	2.2
7.5187	85.9534	2.82	0.06	10.00	-20.00	7.326	5.13369	7.20834	2.6
7.5287	85.9734	2.82	0.06	10.00	-20.00	7.326	5.13465	7.20969	2.4
7.5387	85.9934	2.82	0.06	10.00	-20.00	7.326	5.13561	7.21104	2.2
7.5487	86.0134	2.82	0.06	10.00	-20.00	7.326	5.13657	7.21239	2.5
7.5587	86.0334	2.82	0.06	10.00	-20.00	7.326	5.13753	7.21374	3.2
7.5687	86.0534	2.82	0.06	10.00	-20.00	7.326	5.13849	7.21509	2.8
7.5787	86.0734	2.82	0.06	10.00	-20.00	7.326	5.13946	7.21644	3.0
7.5887	86.0934	2.82	0.06	10.00	-20.00	7.326	5.14042	7.21778	3.1
7.5987	86.1134	2.82	0.06	10.00	-20.00	7.326	5.14138	7.21913	3.3
7.6087	86.1334	2.82	0.06	10.00	-20.00	7.326	5.14234	7.22048	3.4
7.6187	86.1534	2.82	0.06	10.00	-20.00	7.326	5.14330	7.22183	3.8
7.6287	86.1734	2.82	0.06	10.00	-20.00	7.326	5.14426	7.22318	4.2
7.6387	86.1934	2.82	0.06	10.00	-20.00	7.326	5.14522	7.22452	4.1
7.6487	86.2134	2.82	0.06	10.00	-20.00	7.326	5.14618	7.22587	5.0
7.6587	86.2334	2.82	0.06	10.00	-20.00	7.326	5.14714	7.22722	6.0
7.6687	86.2534	2.82	0.06	10.00	-20.00	7.326	5.14810	7.22857	7.4
7.6787	86.2734	2.82	0.06	10.00	-20.00	7.326	5.14905	7.22991	11.2
7.6887	86.2934	2.82	0.06	10.00	-20.00	7.326	5.15001	7.23126	18.8
7.6987	86.3134	2.82	0.06	10.00	-20.00	7.326	5.15097	7.23261	43.6
7.7087	86.3334	2.82	0.06	10.00	-20.00	7.326	5.15193	7.23395	145.1
7.7187	86.3534	2.82	0.06	10.00	-20.00	7.326	5.15289	7.23530	621.0
7.7287	86.3734	2.82	0.06	10.00	-20.00	7.326	5.15385	7.23664	2169.1
7.7387	86.3934	2.82	0.06	10.00	-20.00	7.326	5.15481	7.23799	2797.5
7.7487	86.4134	2.82	0.06	10.00	-20.00	7.326	5.15576	7.23934	1537.2
7.7587	86.4334	2.82	0.06	10.00	-20.00	7.326	5.15672	7.24068	661.0
7.7687	86.4534	2.82	0.06	10.00	-20.00	7.326	5.15768	7.24202	324.4
7.7787	86.4734	2.82	0.06	10.00	-20.00	7.326	5.15864	7.24337	215.1
7.7887	86.4934	2.82	0.06	10.00	-20.00	7.326	5.15960	7.24471	185.5
7.7987	86.5134	2.82	0.06	10.00	-20.00	7.326	5.16055	7.24606	182.5
7.8087	86.5334	2.82	0.06	10.00	-20.00	7.326	5.16151	7.24740	178.5
7.8187	86.5534	2.82	0.06	10.00	-20.00	7.326	5.16247	7.24875	174.5
7.8287	86.5734	2.82	0.06	10.00	-20.00	7.326	5.16342	7.25009	171.9
7.8387	86.5934	2.82	0.06	10.00	-20.00	7.326	5.16438	7.25143	168.9
7.8487	86.6134	2.82	0.06	10.00	-20.00	7.326	5.16534	7.25278	170.3
7.8587	86.6334	2.82	0.06	10.00	-20.00	7.326	5.16629	7.25412	168.3
7.8687	86.6534	2.82	0.06	10.00	-20.00	7.326	5.16725	7.25546	170.9
7.8787	86.6734	2.82	0.06	10.00	-20.00	7.326	5.16821	7.25680	170.0
7.8887	86.6934	2.82	0.06	10.00	-20.00	7.326	5.16916	7.25815	170.7
7.8987	86.7134	2.82	0.06	10.00	-20.00	7.326	5.17012	7.25949	170.3
7.9087	86.7334	2.82	0.06	10.00	-20.00	7.326	5.17107	7.26083	168.7
7.9187	86.7534	2.82	0.06	10.00	-20.00	7.326	5.17203	7.26217	161.6
7.9287	86.7734	2.82	0.06	10.00	-20.00	7.326	5.17298	7.26351	162.6
7.9387	86.7934	2.82	0.06	10.00	-20.00	7.326	5.17394	7.26485	152.9
7.9487	86.8134	2.82	0.06	10.00	-20.00	7.326	5.17489	7.26619	149.2
7.9587	86.8334	2.82	0.06	10.00	-20.00	7.326	5.17585	7.26754	145.5
7.9687	86.8534	2.82	0.06	10.00	-20.00	7.326	5.17680	7.26888	143.6
7.9787	86.8734	2.82	0.06	10.00	-20.00	7.326	5.17776	7.27022	139.9
7.9887	86.8934	2.82	0.06	10.00	-20.00	7.326	5.17871	7.27156	140.9
7.9987	86.9134	2.82	0.06	10.00	-20.00	7.326	5.17967	7.27290	134.6
8.0087	86.9334	2.82	0.06	10.00	-20.00	7.326	5.18062	7.27423	135.6
8.0187	86.9534	2.82	0.06	10.00	-20.00	7.326	5.18157	7.27557	129.0
8.0287	86.9734	2.82	0.06	10.00	-20.00	7.326	5.18253	7.27691	129.4
8.0387	86.9934	2.82	0.06	10.00	-20.00	7.326	5.18348	7.27825	128.2
8.0487	87.0134	2.82	0.06	10.00	-20.00	7.326	5.18443	7.27959	124.7
8.0587	87.0334	2.82	0.06	10.00	-20.00	7.326	5.18539	7.28093	123.0
8.0687	87.0534	2.82	0.06	10.00	-20.00	7.326	5.18634	7.28227	122.7
8.0787	87.0734	2.82	0.06	10.00	-20.00	7.326	5.18729	7.28361	118.8
8.0887	87.0934	2.82	0.06	10.00	-20.00	7.326	5.18825	7.28494	122.9
8.0987	87.1134	2.82	0.06	10.00	-20.00	7.326	5.18920	7.28628	116.4
8.1087	87.1334	2.82	0.06	10.00	-20.00	7.326	5.19015	7.28762	117.9
8.1187	87.1534	2.82	0.06	10.00	-20.00	7.326	5.19110	7.28896	115.0
8.1287	87.1734	2.82	0.06	10.00	-20.00	7.326	5.19206	7.29029	112.9
8.1387	87.1934	2.82	0.06	10.00	-20.00	7.326	5.19301	7.29163	111.0
8.1487	87.2134	2.82	0.06	10.00	-20.00	7.326	5.19396	7.29297	107.8
8.1587	87.2334	2.82	0.06	10.00	-20.00	7.326	5.19491	7.29430	103.8
8.1687	87.2534	2.82	0.06	10.00	-20.00	7.326	5.19586	7.29564	106.7
8.1787	87.2734	2.82	0.06	10.00	-20.00	7.326	5.19681	7.29697	101.6
8.1887	87.2934	2.82	0.06	10.00	-20.00	7.326	5.19777	7.29831	101.6
8.1987	87.3134	2.82	0.06	10.00	-20.00	7.326	5.19872	7.29964	97.2
8.2087	87.3334	2.82	0.06	10.00	-20.00	7.326	5.19967	7.30098	98.0
8.2187	87.3534	2.82	0.06	10.00	-20.00	7.326	5.20062	7.30231	98.0
8.2287	87.3734	2.82	0.06	10.00	-20.00	7.326	5.20157	7.30365	98.9
8.2387	87.3934	2.82	0.06	10.00	-20.00	7.326	5.20252	7.30498	95.1
8.2487	87.4134	2.82	0.06	10.00	-20.00	7.326	5.20347	7.30632	96.4
8.2587	87.4334	2.82	0.06	10.00	-20.00	7.326	5.20442	7.30765	92.0
8.2687	87.4534	2.82	0.06	10.00	-20.00	7.326	5.20537	7.30899	89.2
8.2787	87.4734	2.82	0.06	10.00	-20.00	7.326	5.20632	7.31032	91.4
8.2887	87.4934	2.82	0.06	10.00	-20.00	7.326	5.20727	7.31165	87.4
8.2987	87.5134	2.82	0.06	10.00	-20.00	7.326	5.20822	7.31299	85.2
8.3087	87.5334	2.82	0.06	10.00	-20.00	7.326	5.20917	7.31432	85.5
8.3187	87.5534	2.82	0.06	10.00	-20.00	7.326	5.21012	7.31565	85.9
8.3287	87.5734	2.82	0.06	10.00	-20.00	7.326	5.21106	7.31698	82.4
8.3387	87.5934	2.82	0.06	10.00	-20.00	7.326	5.21201	7.31832	85.2
8.3487	87.6134	2.82	0.06	10.00	-20.00	7.326	5.21296	7.31965	85.6
8.3587	87.6334	2.82	0.06	10.00	-20.00	7.326	5.21391	7.32098	81.4
8.3687	87.6534	2.82	0.06	10.00	-20.00	7.326	5.21486	7.32231	80.4
8.3787	87.6734	2.82	0.06	10.00	-20.00	7.326	5.21581	7.32364	79.5
8.3887	87.6934	2.82	0.06	10.00	-20.00	7.326	5.21676	7.32497	77.9
8.3987	87.7134	2.82	0.06	10.00	-20.00	7.326	5.21770	7.32630	76.2
8.4087	87.7334	2.82	0.06	10.00	-20.00	7.326	5.21865	7.32763	77.6
8.4187	87.7534	2.82	0.06	10.00	-20.00	7.326	5.21960	7.32897	74.7
8.4287	87.7734	2.82	0.06	10.00	-20.00	7.326	5.22055	7.33030	75.0
8.4387	87.7934	2.82	0.06	10.00	-20.00	7.326	5.22149	7.33162	73.5
8.4487	87.8134	2.82	0.06	10.00	-20.00	7.326	5.22244	7.33295	72.8
8.4587	87.8334	2.82	0.06	10.00	-20.00	7.326	5.22339	7.33428	72.4
8.4687	87.8534	2.82	0.06	10.00	-20.00	7.326	5.22433	7.33561	69.4
8.4787	87.8734	2.82	0.06	10.00	-20.00	7.326	5.22528	7.33694	67.5
8.4887	87.8934	2.82	0.06	10.00	-20.00	7.326	5.22623	7.33827	68.2
8.4987	87.9134	2.82	0.06	10.00	-20.00	7.326	5.22717	7.33960	64.1
8.5087	87.9334	2.82	0.06	10.00	-20.00	7.326	5.22812	7.34093	63.6
8.5187	87.9534	2.82	0.06	10.00	-20.00	7.326	5.22906	7.34226	61.4
8.5287	87.9734	2.82	0.06	10.00	-20.00	7.326	5.23001	7.34358	63.4
8.5387	87.9934	2.82	0.06	10.00	-20.00	7.326	5.23096	7.34491	74.0
8.5487	88.0134	2.82	0.06	10.00	-20.00	7.326	5.23190	7.34624	147.2
8.5587	88.0334	2.82	0.06	10.00	-20.00	7.326	5.23285	7.34757	585.8
8.5687	88.0534	2.82	0.06	10.00	-20.00	7.326	5.23379	7.34889	1183.5
8.5787	88.0734	2.82	0.06	10.00	-20.00	7.326	5.23474	7.35022	729.4
8.5887	88.0934	2.82	0.06	10.00	-20.00	7.326	5.23568	7.35155	295.5
8.5987	88.1134	2.82	0.06	10.00	-20.00	7.326	5.23663	7.35287	110.1
8.6087	88.1334	2.82	0.06	10.00	-20.00	7.326	5.23757	7.35420	34.0
8.6187	88.1534	2.82	0.06	10.00	-20.00	7.326	5.23852	7.35553	12.2
8.6287	88.1734	2.82	0.06	10.00	-20.00	7.326	5.23946	7.35685	6.3
8.6387	88.1934	2.82	0.06	10.00	-20.00	7.326	5.24040	7.35818	5.0
8.6487	88.2134	2.82	0.06	10.00	-20.00	7.326	5.24135	7.35950	4.4
8.6587	88.2334	2.82	0.06	10.00	-20.00	7.326	5.24229	7.36083	3.8
8.6687	88.2534	2.82	0.06	10.00	-20.00	7.326	5.24323	7.36215	3.0
8.6787	88.2734	2.82	0.06	10.00	-20.00	7.326	5.24418	7.36348	2.5
8.6887	88.2934	2.82	0.06	10.00	-20.00	7.326	5.24512	7.36480	2.6
8.6987	88.3134	2.82	0.06	10.00	-20.00	7.326	5.24606	7.36613	2.4
8.7087	88.3334	2.82	0.06	10.00	-20.00	7.326	5.24701	7.36745	2.2
8.7187	88.3534	2.82	0.06	10.00	-20.00	7.326	5.24795	7.36877	2.4
8.7287	88.3734	2.82	0.06	10.00	-20.00	7.326	5.24889	7.37010	1.9
8.7387	88.3934	2.82	0.06	10.00	-20.00	7.326	5.24983	7.37142	2.0
8.7487	88.4134	2.82	0.06	10.00	-20.00	7.326	5.25078	7.37274	2.1
8.7587	88.4334	2.82	0.06	10.00	-20.00	7.326	5.25172	7.37407	1.6
8.7687	88.4534	2.82	0.06	10.00	-20.00	7.326	5.25266	7.37539	1.9
8.7787	88.4734	2.82	0.06	10.00	-20.00	7.326	5.25360	7.37671	1.9
8.7887	88.4934	2.82	0.06	10.00	-20.00	7.326	5.25454	7.37803	2.2
8.7987	88.5134	2.82	0.06	10.00	-20.00	7.326	5.25549	7.37936	1.7
8.8087	88.5334	2.82	0.06	10.00	-20.00	7.326	5.25643	7.38068	2.0
8.8187	88.5534	2.82	0.06	10.00	-20.00	7.326	5.25737	7.38200	1.6
8.8287	88.5734	2.82	0.06	10.00	-20.00	7.326	5.25831	7.38332	1.7
8.8387	88.5934	2.82	0.06	10.00	-20.00	7.326	5.25925	7.38464	1.5
8.8487	88.6134	2.82	0.06	10.00	-20.00	7.326	5.26019	7.38596	1.6
8.8587	88.6334	2.82	0.06	10.00	-20.00	7.326	5.26113	7.38728	1.5
8.8687	88.6534	2.82	0.06	10.00	-20.00	7.326	5.26207	7.38860	1.4
8.8787	88.6734	2.82	0.06	10.00	-20.00	7.326	5.26301	7.38992	1.5
8.8887	88.6934	2.82	0.06	10.00	-20.00	7.326	5.26395	7.39124	1.9
8.8987	88.7134	2.82	0.06	10.00	-20.00	7.326	5.26489	7.39256	1.2
8.9087	88.7334	2.82	0.06	10.00	-20.00	7.326	5.26583	7.39388	1.7
8.9187	88.7534	2.82	0.06	10.00	-20.00	7.326	5.26677	7.39520	1.6
8.9287	88.7734	2.82	0.06	10.00	-20.00	7.326	5.26771	7.39652	1.5
8.9387	88.7934	2.82	0.06	10.00	-20.00	7.326	5.26865	7.39784	1.5
8.9487	88.8134	2.82	0.06	10.00	-20.00	7.326	5.26959	7.39916	1.4
8.9587	88.8334	2.82	0.06	10.00	-20.00	7.326	5.27053	7.40047	1.7
8.9687	88.8534	2.82	0.06	10.00	-20.00	7.326	5.27147	7.40179	1.6
8.9787	88.8734	2.82	0.06	10.00	-20.00	7.326	5.27240	7.40311	1.5
8.9887	88.8934	2.82	0.06	10.00	-20.00	7.326	5.27334	7.40443	1.4
8.9987	88.9134	2.82	0.06	10.00	-20.00	7.326	5.27428	7.40575	1.7
9.0087	88.9334	2.82	0.06	10.00	-20.00	7.326	5.27522	7.40706	1.7
9.0187	88.9534	2.82	0.06	10.00	-20.00	7.326	5.27616	7.40838	1.1
9.0287	88.9734	2.82	0.06	10.00	-20.00	7.326	5.27709	7.40970	1.5
9.0387	88.9934	2.82	0.06	10.00	-20.00	7.326	5.27803	7.41101	1.5
9.0487	89.0134	2.82	0.06	10.00	-20.00	7.326	5.27897	7.41233	1.8
9.0587	89.0334	2.82	0.06	10.00	-20.00	7.326	5.27991	7.41365	1.4