File: Data/113xx/2.0deg-2.0deg-rsm-3h10m_11358-annealed_224.dat
# filename: /home/lepecvd/lepecvd/11358/xray/2.0deg-2.0deg-rsm-3h10m_11358-E4_224.xrdml
# reflection: ('2', '2', '4')
# type: Area measurement
# x-axis: Omega_2Theta
# y-axis: Omega
#
# Omega	2Theta	Phi  	Chi   	X    	Y    	Z    	q_para	q_perp	Intensity
# [deg]	[deg] 	[deg]	[deg] 	[mm] 	[mm] 	[mm] 	[nm-1]	[nm-1]	[counts/s]
6.1544	85.0724	-0.24	0.13	0.00	-23.01	7.396	5.20604	7.06600	0.0
6.1644	85.0924	-0.24	0.13	0.00	-23.01	7.396	5.20703	7.06734	2.0
6.1744	85.1124	-0.24	0.13	0.00	-23.01	7.396	5.20802	7.06869	6.0
6.1844	85.1324	-0.24	0.13	0.00	-23.01	7.396	5.20901	7.07003	2.0
6.1944	85.1524	-0.24	0.13	0.00	-23.01	7.396	5.21000	7.07138	2.0
6.2044	85.1724	-0.24	0.13	0.00	-23.01	7.396	5.21099	7.07272	2.0
6.2144	85.1924	-0.24	0.13	0.00	-23.01	7.396	5.21198	7.07406	0.0
6.2244	85.2124	-0.24	0.13	0.00	-23.01	7.396	5.21297	7.07540	0.0
6.2344	85.2324	-0.24	0.13	0.00	-23.01	7.396	5.21396	7.07675	2.0
6.2444	85.2524	-0.24	0.13	0.00	-23.01	7.396	5.21495	7.07809	0.0
6.2544	85.2724	-0.24	0.13	0.00	-23.01	7.396	5.21594	7.07943	0.0
6.2644	85.2924	-0.24	0.13	0.00	-23.01	7.396	5.21693	7.08077	0.0
6.2744	85.3124	-0.24	0.13	0.00	-23.01	7.396	5.21791	7.08211	0.0
6.2844	85.3324	-0.24	0.13	0.00	-23.01	7.396	5.21890	7.08346	0.0
6.2944	85.3524	-0.24	0.13	0.00	-23.01	7.396	5.21989	7.08480	0.0
6.3044	85.3724	-0.24	0.13	0.00	-23.01	7.396	5.22088	7.08614	0.0
6.3144	85.3924	-0.24	0.13	0.00	-23.01	7.396	5.22187	7.08748	0.0
6.3244	85.4124	-0.24	0.13	0.00	-23.01	7.396	5.22285	7.08882	0.0
6.3344	85.4324	-0.24	0.13	0.00	-23.01	7.396	5.22384	7.09016	0.0
6.3444	85.4524	-0.24	0.13	0.00	-23.01	7.396	5.22483	7.09150	0.0
6.3544	85.4724	-0.24	0.13	0.00	-23.01	7.396	5.22582	7.09284	0.0
6.3644	85.4924	-0.24	0.13	0.00	-23.01	7.396	5.22680	7.09418	2.0
6.3744	85.5124	-0.24	0.13	0.00	-23.01	7.396	5.22779	7.09552	2.0
6.3844	85.5324	-0.24	0.13	0.00	-23.01	7.396	5.22878	7.09686	0.0
6.3944	85.5524	-0.24	0.13	0.00	-23.01	7.396	5.22976	7.09820	0.0
6.4044	85.5724	-0.24	0.13	0.00	-23.01	7.396	5.23075	7.09954	2.0
6.4144	85.5924	-0.24	0.13	0.00	-23.01	7.396	5.23174	7.10088	2.0
6.4244	85.6124	-0.24	0.13	0.00	-23.01	7.396	5.23272	7.10221	0.0
6.4344	85.6324	-0.24	0.13	0.00	-23.01	7.396	5.23371	7.10355	0.0
6.4444	85.6524	-0.24	0.13	0.00	-23.01	7.396	5.23469	7.10489	2.0
6.4544	85.6724	-0.24	0.13	0.00	-23.01	7.396	5.23568	7.10623	2.0
6.4644	85.6924	-0.24	0.13	0.00	-23.01	7.396	5.23667	7.10757	2.0
6.4744	85.7124	-0.24	0.13	0.00	-23.01	7.396	5.23765	7.10890	2.0
6.4844	85.7324	-0.24	0.13	0.00	-23.01	7.396	5.23864	7.11024	4.0
6.4944	85.7524	-0.24	0.13	0.00	-23.01	7.396	5.23962	7.11158	2.0
6.5044	85.7724	-0.24	0.13	0.00	-23.01	7.396	5.24061	7.11291	2.0
6.5144	85.7924	-0.24	0.13	0.00	-23.01	7.396	5.24159	7.11425	2.0
6.5244	85.8124	-0.24	0.13	0.00	-23.01	7.396	5.24257	7.11559	0.0
6.5344	85.8324	-0.24	0.13	0.00	-23.01	7.396	5.24356	7.11692	4.0
6.5444	85.8524	-0.24	0.13	0.00	-23.01	7.396	5.24454	7.11826	0.0
6.5544	85.8724	-0.24	0.13	0.00	-23.01	7.396	5.24553	7.11959	0.0
6.5644	85.8924	-0.24	0.13	0.00	-23.01	7.396	5.24651	7.12093	2.0
6.5744	85.9124	-0.24	0.13	0.00	-23.01	7.396	5.24750	7.12226	0.0
6.5844	85.9324	-0.24	0.13	0.00	-23.01	7.396	5.24848	7.12360	2.0
6.5944	85.9524	-0.24	0.13	0.00	-23.01	7.396	5.24946	7.12493	0.0
6.6044	85.9724	-0.24	0.13	0.00	-23.01	7.396	5.25045	7.12627	0.0
6.6144	85.9924	-0.24	0.13	0.00	-23.01	7.396	5.25143	7.12760	0.0
6.6244	86.0124	-0.24	0.13	0.00	-23.01	7.396	5.25241	7.12894	2.0
6.6344	86.0324	-0.24	0.13	0.00	-23.01	7.396	5.25339	7.13027	0.0
6.6444	86.0524	-0.24	0.13	0.00	-23.01	7.396	5.25438	7.13160	0.0
6.6544	86.0724	-0.24	0.13	0.00	-23.01	7.396	5.25536	7.13294	2.0
6.6644	86.0924	-0.24	0.13	0.00	-23.01	7.396	5.25634	7.13427	0.0
6.6744	86.1124	-0.24	0.13	0.00	-23.01	7.396	5.25732	7.13560	4.0
6.6844	86.1324	-0.24	0.13	0.00	-23.01	7.396	5.25831	7.13694	2.0
6.6944	86.1524	-0.24	0.13	0.00	-23.01	7.396	5.25929	7.13827	2.0
6.7044	86.1724	-0.24	0.13	0.00	-23.01	7.396	5.26027	7.13960	0.0
6.7144	86.1924	-0.24	0.13	0.00	-23.01	7.396	5.26125	7.14093	0.0
6.7244	86.2124	-0.24	0.13	0.00	-23.01	7.396	5.26223	7.14227	0.0
6.7344	86.2324	-0.24	0.13	0.00	-23.01	7.396	5.26321	7.14360	0.0
6.7444	86.2524	-0.24	0.13	0.00	-23.01	7.396	5.26419	7.14493	2.0
6.7544	86.2724	-0.24	0.13	0.00	-23.01	7.396	5.26517	7.14626	2.0
6.7644	86.2924	-0.24	0.13	0.00	-23.01	7.396	5.26616	7.14759	0.0
6.7744	86.3124	-0.24	0.13	0.00	-23.01	7.396	5.26714	7.14892	0.0
6.7844	86.3324	-0.24	0.13	0.00	-23.01	7.396	5.26812	7.15025	2.0
6.7944	86.3524	-0.24	0.13	0.00	-23.01	7.396	5.26910	7.15158	2.0
6.8044	86.3724	-0.24	0.13	0.00	-23.01	7.396	5.27008	7.15291	2.0
6.8144	86.3924	-0.24	0.13	0.00	-23.01	7.396	5.27106	7.15424	0.0
6.8244	86.4124	-0.24	0.13	0.00	-23.01	7.396	5.27204	7.15557	4.0
6.8344	86.4324	-0.24	0.13	0.00	-23.01	7.396	5.27302	7.15690	0.0
6.8444	86.4524	-0.24	0.13	0.00	-23.01	7.396	5.27400	7.15823	0.0
6.8544	86.4724	-0.24	0.13	0.00	-23.01	7.396	5.27497	7.15956	2.0
6.8644	86.4924	-0.24	0.13	0.00	-23.01	7.396	5.27595	7.16089	0.0
6.8744	86.5124	-0.24	0.13	0.00	-23.01	7.396	5.27693	7.16222	0.0
6.8844	86.5324	-0.24	0.13	0.00	-23.01	7.396	5.27791	7.16355	2.0
6.8944	86.5524	-0.24	0.13	0.00	-23.01	7.396	5.27889	7.16488	0.0
6.9044	86.5724	-0.24	0.13	0.00	-23.01	7.396	5.27987	7.16620	4.0
6.9144	86.5924	-0.24	0.13	0.00	-23.01	7.396	5.28085	7.16753	6.0
6.9244	86.6124	-0.24	0.13	0.00	-23.01	7.396	5.28182	7.16886	0.0
6.9344	86.6324	-0.24	0.13	0.00	-23.01	7.396	5.28280	7.17019	2.0
6.9444	86.6524	-0.24	0.13	0.00	-23.01	7.396	5.28378	7.17151	2.0
6.9544	86.6724	-0.24	0.13	0.00	-23.01	7.396	5.28476	7.17284	2.0
6.9644	86.6924	-0.24	0.13	0.00	-23.01	7.396	5.28574	7.17417	2.0
6.9744	86.7124	-0.24	0.13	0.00	-23.01	7.396	5.28671	7.17549	0.0
6.9844	86.7324	-0.24	0.13	0.00	-23.01	7.396	5.28769	7.17682	2.0
6.9944	86.7524	-0.24	0.13	0.00	-23.01	7.396	5.28867	7.17815	0.0
7.0044	86.7724	-0.24	0.13	0.00	-23.01	7.396	5.28964	7.17947	6.0
7.0144	86.7924	-0.24	0.13	0.00	-23.01	7.396	5.29062	7.18080	2.0
7.0244	86.8124	-0.24	0.13	0.00	-23.01	7.396	5.29160	7.18212	0.0
7.0344	86.8324	-0.24	0.13	0.00	-23.01	7.396	5.29257	7.18345	2.0
7.0444	86.8524	-0.24	0.13	0.00	-23.01	7.396	5.29355	7.18477	2.0
7.0544	86.8724	-0.24	0.13	0.00	-23.01	7.396	5.29453	7.18610	0.0
7.0644	86.8924	-0.24	0.13	0.00	-23.01	7.396	5.29550	7.18742	2.0
7.0744	86.9124	-0.24	0.13	0.00	-23.01	7.396	5.29648	7.18875	2.0
7.0844	86.9324	-0.24	0.13	0.00	-23.01	7.396	5.29745	7.19007	4.0
7.0944	86.9524	-0.24	0.13	0.00	-23.01	7.396	5.29843	7.19139	0.0
7.1044	86.9724	-0.24	0.13	0.00	-23.01	7.396	5.29940	7.19272	4.0
7.1144	86.9924	-0.24	0.13	0.00	-23.01	7.396	5.30038	7.19404	4.0
7.1244	87.0124	-0.24	0.13	0.00	-23.01	7.396	5.30135	7.19536	0.0
7.1344	87.0324	-0.24	0.13	0.00	-23.01	7.396	5.30233	7.19669	0.0
7.1444	87.0524	-0.24	0.13	0.00	-23.01	7.396	5.30330	7.19801	2.0
7.1544	87.0724	-0.24	0.13	0.00	-23.01	7.396	5.30428	7.19933	2.0
7.1644	87.0924	-0.24	0.13	0.00	-23.01	7.396	5.30525	7.20065	0.0
7.1744	87.1124	-0.24	0.13	0.00	-23.01	7.396	5.30623	7.20198	0.0
7.1844	87.1324	-0.24	0.13	0.00	-23.01	7.396	5.30720	7.20330	4.0
7.1944	87.1524	-0.24	0.13	0.00	-23.01	7.396	5.30817	7.20462	0.0
7.2044	87.1724	-0.24	0.13	0.00	-23.01	7.396	5.30915	7.20594	0.0
7.2144	87.1924	-0.24	0.13	0.00	-23.01	7.396	5.31012	7.20726	0.0
7.2244	87.2124	-0.24	0.13	0.00	-23.01	7.396	5.31109	7.20858	0.0
7.2344	87.2324	-0.24	0.13	0.00	-23.01	7.396	5.31207	7.20990	0.0
7.2444	87.2524	-0.24	0.13	0.00	-23.01	7.396	5.31304	7.21123	0.0
7.2544	87.2724	-0.24	0.13	0.00	-23.01	7.396	5.31401	7.21255	2.0
7.2644	87.2924	-0.24	0.13	0.00	-23.01	7.396	5.31498	7.21387	0.0
7.2744	87.3124	-0.24	0.13	0.00	-23.01	7.396	5.31596	7.21519	0.0
7.2844	87.3324	-0.24	0.13	0.00	-23.01	7.396	5.31693	7.21651	0.0
7.2944	87.3524	-0.24	0.13	0.00	-23.01	7.396	5.31790	7.21783	6.0
7.3044	87.3724	-0.24	0.13	0.00	-23.01	7.396	5.31887	7.21914	2.0
7.3144	87.3924	-0.24	0.13	0.00	-23.01	7.396	5.31985	7.22046	4.0
7.3244	87.4124	-0.24	0.13	0.00	-23.01	7.396	5.32082	7.22178	0.0
7.3344	87.4324	-0.24	0.13	0.00	-23.01	7.396	5.32179	7.22310	4.0
7.3444	87.4524	-0.24	0.13	0.00	-23.01	7.396	5.32276	7.22442	0.0
7.3544	87.4724	-0.24	0.13	0.00	-23.01	7.396	5.32373	7.22574	0.0
7.3644	87.4924	-0.24	0.13	0.00	-23.01	7.396	5.32470	7.22706	0.0
7.3744	87.5124	-0.24	0.13	0.00	-23.01	7.396	5.32567	7.22837	0.0
7.3844	87.5324	-0.24	0.13	0.00	-23.01	7.396	5.32664	7.22969	0.0
7.3944	87.5524	-0.24	0.13	0.00	-23.01	7.396	5.32761	7.23101	2.0
7.4044	87.5724	-0.24	0.13	0.00	-23.01	7.396	5.32858	7.23232	6.0
7.4144	87.5924	-0.24	0.13	0.00	-23.01	7.396	5.32955	7.23364	0.0
7.4244	87.6124	-0.24	0.13	0.00	-23.01	7.396	5.33052	7.23496	0.0
7.4344	87.6324	-0.24	0.13	0.00	-23.01	7.396	5.33149	7.23627	0.0
7.4444	87.6524	-0.24	0.13	0.00	-23.01	7.396	5.33246	7.23759	2.0
7.4544	87.6724	-0.24	0.13	0.00	-23.01	7.396	5.33343	7.23891	2.0
7.4644	87.6924	-0.24	0.13	0.00	-23.01	7.396	5.33440	7.24022	0.0
7.4744	87.7124	-0.24	0.13	0.00	-23.01	7.396	5.33537	7.24154	0.0
7.4844	87.7324	-0.24	0.13	0.00	-23.01	7.396	5.33634	7.24285	4.0
7.4944	87.7524	-0.24	0.13	0.00	-23.01	7.396	5.33731	7.24417	2.0
7.5044	87.7724	-0.24	0.13	0.00	-23.01	7.396	5.33828	7.24548	0.0
7.5144	87.7924	-0.24	0.13	0.00	-23.01	7.396	5.33925	7.24680	0.0
7.5244	87.8124	-0.24	0.13	0.00	-23.01	7.396	5.34022	7.24811	4.0
7.5344	87.8324	-0.24	0.13	0.00	-23.01	7.396	5.34118	7.24943	4.0
7.5444	87.8524	-0.24	0.13	0.00	-23.01	7.396	5.34215	7.25074	2.0
7.5544	87.8724	-0.24	0.13	0.00	-23.01	7.396	5.34312	7.25205	0.0
7.5644	87.8924	-0.24	0.13	0.00	-23.01	7.396	5.34409	7.25337	2.0
7.5744	87.9124	-0.24	0.13	0.00	-23.01	7.396	5.34506	7.25468	4.0
7.5844	87.9324	-0.24	0.13	0.00	-23.01	7.396	5.34602	7.25599	0.0
7.5944	87.9524	-0.24	0.13	0.00	-23.01	7.396	5.34699	7.25731	0.0
7.6044	87.9724	-0.24	0.13	0.00	-23.01	7.396	5.34796	7.25862	0.0
7.6144	87.9924	-0.24	0.13	0.00	-23.01	7.396	5.34892	7.25993	0.0
7.6244	88.0124	-0.24	0.13	0.00	-23.01	7.396	5.34989	7.26124	0.0
7.6344	88.0324	-0.24	0.13	0.00	-23.01	7.396	5.35086	7.26256	2.0
7.6444	88.0524	-0.24	0.13	0.00	-23.01	7.396	5.35182	7.26387	4.0
7.6544	88.0724	-0.24	0.13	0.00	-23.01	7.396	5.35279	7.26518	2.0
7.6644	88.0924	-0.24	0.13	0.00	-23.01	7.396	5.35376	7.26649	0.0
7.6744	88.1124	-0.24	0.13	0.00	-23.01	7.396	5.35472	7.26780	4.0
7.6844	88.1324	-0.24	0.13	0.00	-23.01	7.396	5.35569	7.26911	4.0
7.6944	88.1524	-0.24	0.13	0.00	-23.01	7.396	5.35665	7.27042	4.0
7.7044	88.1724	-0.24	0.13	0.00	-23.01	7.396	5.35762	7.27173	0.0
7.7144	88.1924	-0.24	0.13	0.00	-23.01	7.396	5.35858	7.27304	2.0
7.7244	88.2124	-0.24	0.13	0.00	-23.01	7.396	5.35955	7.27435	2.0
7.7344	88.2324	-0.24	0.13	0.00	-23.01	7.396	5.36051	7.27566	0.0
7.7444	88.2524	-0.24	0.13	0.00	-23.01	7.396	5.36148	7.27697	0.0
7.7544	88.2724	-0.24	0.13	0.00	-23.01	7.396	5.36244	7.27828	2.0
7.7644	88.2924	-0.24	0.13	0.00	-23.01	7.396	5.36341	7.27959	0.0
7.7744	88.3124	-0.24	0.13	0.00	-23.01	7.396	5.36437	7.28090	2.0
7.7844	88.3324	-0.24	0.13	0.00	-23.01	7.396	5.36534	7.28221	0.0
7.7944	88.3524	-0.24	0.13	0.00	-23.01	7.396	5.36630	7.28352	0.0
7.8044	88.3724	-0.24	0.13	0.00	-23.01	7.396	5.36727	7.28482	2.0
7.8144	88.3924	-0.24	0.13	0.00	-23.01	7.396	5.36823	7.28613	0.0
7.8244	88.4124	-0.24	0.13	0.00	-23.01	7.396	5.36919	7.28744	4.0
7.8344	88.4324	-0.24	0.13	0.00	-23.01	7.396	5.37016	7.28875	0.0
7.8444	88.4524	-0.24	0.13	0.00	-23.01	7.396	5.37112	7.29006	4.0
7.8544	88.4724	-0.24	0.13	0.00	-23.01	7.396	5.37208	7.29136	0.0
7.8644	88.4924	-0.24	0.13	0.00	-23.01	7.396	5.37304	7.29267	0.0
7.8744	88.5124	-0.24	0.13	0.00	-23.01	7.396	5.37401	7.29398	2.0
7.8844	88.5324	-0.24	0.13	0.00	-23.01	7.396	5.37497	7.29528	0.0
7.8944	88.5524	-0.24	0.13	0.00	-23.01	7.396	5.37593	7.29659	0.0
7.9044	88.5724	-0.24	0.13	0.00	-23.01	7.396	5.37689	7.29789	0.0
7.9144	88.5924	-0.24	0.13	0.00	-23.01	7.396	5.37786	7.29920	0.0
7.9244	88.6124	-0.24	0.13	0.00	-23.01	7.396	5.37882	7.30051	4.0
7.9344	88.6324	-0.24	0.13	0.00	-23.01	7.396	5.37978	7.30181	0.0
7.9444	88.6524	-0.24	0.13	0.00	-23.01	7.396	5.38074	7.30312	2.0
7.9544	88.6724	-0.24	0.13	0.00	-23.01	7.396	5.38170	7.30442	0.0
7.9644	88.6924	-0.24	0.13	0.00	-23.01	7.396	5.38266	7.30573	2.0
7.9744	88.7124	-0.24	0.13	0.00	-23.01	7.396	5.38363	7.30703	2.0
7.9844	88.7324	-0.24	0.13	0.00	-23.01	7.396	5.38459	7.30833	0.0
7.9944	88.7524	-0.24	0.13	0.00	-23.01	7.396	5.38555	7.30964	0.0
8.0044	88.7724	-0.24	0.13	0.00	-23.01	7.396	5.38651	7.31094	0.0
8.0144	88.7924	-0.24	0.13	0.00	-23.01	7.396	5.38747	7.31225	8.0
8.0244	88.8124	-0.24	0.13	0.00	-23.01	7.396	5.38843	7.31355	2.0
8.0344	88.8324	-0.24	0.13	0.00	-23.01	7.396	5.38939	7.31485	0.0
8.0444	88.8524	-0.24	0.13	0.00	-23.01	7.396	5.39035	7.31615	0.0
8.0544	88.8724	-0.24	0.13	0.00	-23.01	7.396	5.39131	7.31746	4.0
8.0644	88.8924	-0.24	0.13	0.00	-23.01	7.396	5.39227	7.31876	0.0
8.0744	88.9124	-0.24	0.13	0.00	-23.01	7.396	5.39323	7.32006	0.0
8.0844	88.9324	-0.24	0.13	0.00	-23.01	7.396	5.39419	7.32136	0.0
8.0944	88.9524	-0.24	0.13	0.00	-23.01	7.396	5.39515	7.32267	0.0
8.1044	88.9724	-0.24	0.13	0.00	-23.01	7.396	5.39610	7.32397	0.0
8.1144	88.9924	-0.24	0.13	0.00	-23.01	7.396	5.39706	7.32527	2.0
8.1244	89.0124	-0.24	0.13	0.00	-23.01	7.396	5.39802	7.32657	4.0
8.1344	89.0324	-0.24	0.13	0.00	-23.01	7.396	5.39898	7.32787	2.0

6.1744	85.0724	-0.24	0.13	0.00	-23.01	7.396	5.20357	7.06782	0.0
6.1844	85.0924	-0.24	0.13	0.00	-23.01	7.396	5.20456	7.06916	2.0
6.1944	85.1124	-0.24	0.13	0.00	-23.01	7.396	5.20555	7.07051	4.0
6.2044	85.1324	-0.24	0.13	0.00	-23.01	7.396	5.20654	7.07185	0.0
6.2144	85.1524	-0.24	0.13	0.00	-23.01	7.396	5.20753	7.07319	0.0
6.2244	85.1724	-0.24	0.13	0.00	-23.01	7.396	5.20852	7.07454	2.0
6.2344	85.1924	-0.24	0.13	0.00	-23.01	7.396	5.20951	7.07588	2.0
6.2444	85.2124	-0.24	0.13	0.00	-23.01	7.396	5.21050	7.07722	0.0
6.2544	85.2324	-0.24	0.13	0.00	-23.01	7.396	5.21149	7.07857	2.0
6.2644	85.2524	-0.24	0.13	0.00	-23.01	7.396	5.21248	7.07991	2.0
6.2744	85.2724	-0.24	0.13	0.00	-23.01	7.396	5.21347	7.08125	2.0
6.2844	85.2924	-0.24	0.13	0.00	-23.01	7.396	5.21445	7.08259	2.0
6.2944	85.3124	-0.24	0.13	0.00	-23.01	7.396	5.21544	7.08394	6.0
6.3044	85.3324	-0.24	0.13	0.00	-23.01	7.396	5.21643	7.08528	0.0
6.3144	85.3524	-0.24	0.13	0.00	-23.01	7.396	5.21742	7.08662	2.0
6.3244	85.3724	-0.24	0.13	0.00	-23.01	7.396	5.21840	7.08796	0.0
6.3344	85.3924	-0.24	0.13	0.00	-23.01	7.396	5.21939	7.08930	0.0
6.3444	85.4124	-0.24	0.13	0.00	-23.01	7.396	5.22038	7.09064	2.0
6.3544	85.4324	-0.24	0.13	0.00	-23.01	7.396	5.22137	7.09198	4.0
6.3644	85.4524	-0.24	0.13	0.00	-23.01	7.396	5.22235	7.09332	0.0
6.3744	85.4724	-0.24	0.13	0.00	-23.01	7.396	5.22334	7.09466	0.0
6.3844	85.4924	-0.24	0.13	0.00	-23.01	7.396	5.22433	7.09600	2.0
6.3944	85.5124	-0.24	0.13	0.00	-23.01	7.396	5.22531	7.09734	2.0
6.4044	85.5324	-0.24	0.13	0.00	-23.01	7.396	5.22630	7.09868	0.0
6.4144	85.5524	-0.24	0.13	0.00	-23.01	7.396	5.22729	7.10002	2.0
6.4244	85.5724	-0.24	0.13	0.00	-23.01	7.396	5.22827	7.10136	2.0
6.4344	85.5924	-0.24	0.13	0.00	-23.01	7.396	5.22926	7.10270	4.0
6.4444	85.6124	-0.24	0.13	0.00	-23.01	7.396	5.23024	7.10404	2.0
6.4544	85.6324	-0.24	0.13	0.00	-23.01	7.396	5.23123	7.10538	2.0
6.4644	85.6524	-0.24	0.13	0.00	-23.01	7.396	5.23221	7.10672	2.0
6.4744	85.6724	-0.24	0.13	0.00	-23.01	7.396	5.23320	7.10806	0.0
6.4844	85.6924	-0.24	0.13	0.00	-23.01	7.396	5.23418	7.10939	4.0
6.4944	85.7124	-0.24	0.13	0.00	-23.01	7.396	5.23517	7.11073	0.0
6.5044	85.7324	-0.24	0.13	0.00	-23.01	7.396	5.23615	7.11207	4.0
6.5144	85.7524	-0.24	0.13	0.00	-23.01	7.396	5.23714	7.11341	0.0
6.5244	85.7724	-0.24	0.13	0.00	-23.01	7.396	5.23812	7.11474	2.0
6.5344	85.7924	-0.24	0.13	0.00	-23.01	7.396	5.23911	7.11608	0.0
6.5444	85.8124	-0.24	0.13	0.00	-23.01	7.396	5.24009	7.11742	2.0
6.5544	85.8324	-0.24	0.13	0.00	-23.01	7.396	5.24107	7.11875	0.0
6.5644	85.8524	-0.24	0.13	0.00	-23.01	7.396	5.24206	7.12009	2.0
6.5744	85.8724	-0.24	0.13	0.00	-23.01	7.396	5.24304	7.12142	4.0
6.5844	85.8924	-0.24	0.13	0.00	-23.01	7.396	5.24403	7.12276	0.0
6.5944	85.9124	-0.24	0.13	0.00	-23.01	7.396	5.24501	7.12410	2.0
6.6044	85.9324	-0.24	0.13	0.00	-23.01	7.396	5.24599	7.12543	0.0
6.6144	85.9524	-0.24	0.13	0.00	-23.01	7.396	5.24697	7.12677	2.0
6.6244	85.9724	-0.24	0.13	0.00	-23.01	7.396	5.24796	7.12810	0.0
6.6344	85.9924	-0.24	0.13	0.00	-23.01	7.396	5.24894	7.12944	2.0
6.6444	86.0124	-0.24	0.13	0.00	-23.01	7.396	5.24992	7.13077	0.0
6.6544	86.0324	-0.24	0.13	0.00	-23.01	7.396	5.25090	7.13210	0.0
6.6644	86.0524	-0.24	0.13	0.00	-23.01	7.396	5.25189	7.13344	0.0
6.6744	86.0724	-0.24	0.13	0.00	-23.01	7.396	5.25287	7.13477	4.0
6.6844	86.0924	-0.24	0.13	0.00	-23.01	7.396	5.25385	7.13611	2.0
6.6944	86.1124	-0.24	0.13	0.00	-23.01	7.396	5.25483	7.13744	2.0
6.7044	86.1324	-0.24	0.13	0.00	-23.01	7.396	5.25581	7.13877	0.0
6.7144	86.1524	-0.24	0.13	0.00	-23.01	7.396	5.25680	7.14011	0.0
6.7244	86.1724	-0.24	0.13	0.00	-23.01	7.396	5.25778	7.14144	2.0
6.7344	86.1924	-0.24	0.13	0.00	-23.01	7.396	5.25876	7.14277	2.0
6.7444	86.2124	-0.24	0.13	0.00	-23.01	7.396	5.25974	7.14410	4.0
6.7544	86.2324	-0.24	0.13	0.00	-23.01	7.396	5.26072	7.14543	0.0
6.7644	86.2524	-0.24	0.13	0.00	-23.01	7.396	5.26170	7.14677	2.0
6.7744	86.2724	-0.24	0.13	0.00	-23.01	7.396	5.26268	7.14810	6.0
6.7844	86.2924	-0.24	0.13	0.00	-23.01	7.396	5.26366	7.14943	2.0
6.7944	86.3124	-0.24	0.13	0.00	-23.01	7.396	5.26464	7.15076	2.0
6.8044	86.3324	-0.24	0.13	0.00	-23.01	7.396	5.26562	7.15209	2.0
6.8144	86.3524	-0.24	0.13	0.00	-23.01	7.396	5.26660	7.15342	0.0
6.8244	86.3724	-0.24	0.13	0.00	-23.01	7.396	5.26758	7.15475	0.0
6.8344	86.3924	-0.24	0.13	0.00	-23.01	7.396	5.26856	7.15608	4.0
6.8444	86.4124	-0.24	0.13	0.00	-23.01	7.396	5.26954	7.15741	6.0
6.8544	86.4324	-0.24	0.13	0.00	-23.01	7.396	5.27052	7.15874	0.0
6.8644	86.4524	-0.24	0.13	0.00	-23.01	7.396	5.27150	7.16007	0.0
6.8744	86.4724	-0.24	0.13	0.00	-23.01	7.396	5.27247	7.16140	0.0
6.8844	86.4924	-0.24	0.13	0.00	-23.01	7.396	5.27345	7.16273	2.0
6.8944	86.5124	-0.24	0.13	0.00	-23.01	7.396	5.27443	7.16406	2.0
6.9044	86.5324	-0.24	0.13	0.00	-23.01	7.396	5.27541	7.16539	2.0
6.9144	86.5524	-0.24	0.13	0.00	-23.01	7.396	5.27639	7.16672	0.0
6.9244	86.5724	-0.24	0.13	0.00	-23.01	7.396	5.27737	7.16805	0.0
6.9344	86.5924	-0.24	0.13	0.00	-23.01	7.396	5.27834	7.16937	0.0
6.9444	86.6124	-0.24	0.13	0.00	-23.01	7.396	5.27932	7.17070	4.0
6.9544	86.6324	-0.24	0.13	0.00	-23.01	7.396	5.28030	7.17203	2.0
6.9644	86.6524	-0.24	0.13	0.00	-23.01	7.396	5.28128	7.17336	0.0
6.9744	86.6724	-0.24	0.13	0.00	-23.01	7.396	5.28225	7.17468	4.0
6.9844	86.6924	-0.24	0.13	0.00	-23.01	7.396	5.28323	7.17601	2.0
6.9944	86.7124	-0.24	0.13	0.00	-23.01	7.396	5.28421	7.17734	0.0
7.0044	86.7324	-0.24	0.13	0.00	-23.01	7.396	5.28518	7.17867	0.0
7.0144	86.7524	-0.24	0.13	0.00	-23.01	7.396	5.28616	7.17999	0.0
7.0244	86.7724	-0.24	0.13	0.00	-23.01	7.396	5.28714	7.18132	0.0
7.0344	86.7924	-0.24	0.13	0.00	-23.01	7.396	5.28811	7.18264	0.0
7.0444	86.8124	-0.24	0.13	0.00	-23.01	7.396	5.28909	7.18397	6.0
7.0544	86.8324	-0.24	0.13	0.00	-23.01	7.396	5.29007	7.18529	0.0
7.0644	86.8524	-0.24	0.13	0.00	-23.01	7.396	5.29104	7.18662	2.0
7.0744	86.8724	-0.24	0.13	0.00	-23.01	7.396	5.29202	7.18795	4.0
7.0844	86.8924	-0.24	0.13	0.00	-23.01	7.396	5.29299	7.18927	2.0
7.0944	86.9124	-0.24	0.13	0.00	-23.01	7.396	5.29397	7.19059	0.0
7.1044	86.9324	-0.24	0.13	0.00	-23.01	7.396	5.29494	7.19192	0.0
7.1144	86.9524	-0.24	0.13	0.00	-23.01	7.396	5.29592	7.19324	0.0
7.1244	86.9724	-0.24	0.13	0.00	-23.01	7.396	5.29689	7.19457	0.0
7.1344	86.9924	-0.24	0.13	0.00	-23.01	7.396	5.29787	7.19589	0.0
7.1444	87.0124	-0.24	0.13	0.00	-23.01	7.396	5.29884	7.19721	0.0
7.1544	87.0324	-0.24	0.13	0.00	-23.01	7.396	5.29982	7.19854	0.0
7.1644	87.0524	-0.24	0.13	0.00	-23.01	7.396	5.30079	7.19986	4.0
7.1744	87.0724	-0.24	0.13	0.00	-23.01	7.396	5.30176	7.20118	4.0
7.1844	87.0924	-0.24	0.13	0.00	-23.01	7.396	5.30274	7.20251	0.0
7.1944	87.1124	-0.24	0.13	0.00	-23.01	7.396	5.30371	7.20383	2.0
7.2044	87.1324	-0.24	0.13	0.00	-23.01	7.396	5.30468	7.20515	0.0
7.2144	87.1524	-0.24	0.13	0.00	-23.01	7.396	5.30566	7.20647	0.0
7.2244	87.1724	-0.24	0.13	0.00	-23.01	7.396	5.30663	7.20779	2.0
7.2344	87.1924	-0.24	0.13	0.00	-23.01	7.396	5.30760	7.20912	2.0
7.2444	87.2124	-0.24	0.13	0.00	-23.01	7.396	5.30858	7.21044	0.0
7.2544	87.2324	-0.24	0.13	0.00	-23.01	7.396	5.30955	7.21176	6.0
7.2644	87.2524	-0.24	0.13	0.00	-23.01	7.396	5.31052	7.21308	0.0
7.2744	87.2724	-0.24	0.13	0.00	-23.01	7.396	5.31149	7.21440	2.0
7.2844	87.2924	-0.24	0.13	0.00	-23.01	7.396	5.31247	7.21572	0.0
7.2944	87.3124	-0.24	0.13	0.00	-23.01	7.396	5.31344	7.21704	2.0
7.3044	87.3324	-0.24	0.13	0.00	-23.01	7.396	5.31441	7.21836	4.0
7.3144	87.3524	-0.24	0.13	0.00	-23.01	7.396	5.31538	7.21968	2.0
7.3244	87.3724	-0.24	0.13	0.00	-23.01	7.396	5.31635	7.22100	2.0
7.3344	87.3924	-0.24	0.13	0.00	-23.01	7.396	5.31732	7.22232	2.0
7.3444	87.4124	-0.24	0.13	0.00	-23.01	7.396	5.31830	7.22364	0.0
7.3544	87.4324	-0.24	0.13	0.00	-23.01	7.396	5.31927	7.22496	2.0
7.3644	87.4524	-0.24	0.13	0.00	-23.01	7.396	5.32024	7.22628	0.0
7.3744	87.4724	-0.24	0.13	0.00	-23.01	7.396	5.32121	7.22760	4.0
7.3844	87.4924	-0.24	0.13	0.00	-23.01	7.396	5.32218	7.22891	0.0
7.3944	87.5124	-0.24	0.13	0.00	-23.01	7.396	5.32315	7.23023	4.0
7.4044	87.5324	-0.24	0.13	0.00	-23.01	7.396	5.32412	7.23155	2.0
7.4144	87.5524	-0.24	0.13	0.00	-23.01	7.396	5.32509	7.23287	4.0
7.4244	87.5724	-0.24	0.13	0.00	-23.01	7.396	5.32606	7.23418	2.0
7.4344	87.5924	-0.24	0.13	0.00	-23.01	7.396	5.32703	7.23550	0.0
7.4444	87.6124	-0.24	0.13	0.00	-23.01	7.396	5.32800	7.23682	2.0
7.4544	87.6324	-0.24	0.13	0.00	-23.01	7.396	5.32897	7.23813	2.0
7.4644	87.6524	-0.24	0.13	0.00	-23.01	7.396	5.32994	7.23945	2.0
7.4744	87.6724	-0.24	0.13	0.00	-23.01	7.396	5.33091	7.24077	0.0
7.4844	87.6924	-0.24	0.13	0.00	-23.01	7.396	5.33188	7.24208	0.0
7.4944	87.7124	-0.24	0.13	0.00	-23.01	7.396	5.33284	7.24340	2.0
7.5044	87.7324	-0.24	0.13	0.00	-23.01	7.396	5.33381	7.24472	2.0
7.5144	87.7524	-0.24	0.13	0.00	-23.01	7.396	5.33478	7.24603	4.0
7.5244	87.7724	-0.24	0.13	0.00	-23.01	7.396	5.33575	7.24735	0.0
7.5344	87.7924	-0.24	0.13	0.00	-23.01	7.396	5.33672	7.24866	2.0
7.5444	87.8124	-0.24	0.13	0.00	-23.01	7.396	5.33769	7.24998	2.0
7.5544	87.8324	-0.24	0.13	0.00	-23.01	7.396	5.33865	7.25129	2.0
7.5644	87.8524	-0.24	0.13	0.00	-23.01	7.396	5.33962	7.25260	0.0
7.5744	87.8724	-0.24	0.13	0.00	-23.01	7.396	5.34059	7.25392	2.0
7.5844	87.8924	-0.24	0.13	0.00	-23.01	7.396	5.34156	7.25523	0.0
7.5944	87.9124	-0.24	0.13	0.00	-23.01	7.396	5.34252	7.25655	2.0
7.6044	87.9324	-0.24	0.13	0.00	-23.01	7.396	5.34349	7.25786	0.0
7.6144	87.9524	-0.24	0.13	0.00	-23.01	7.396	5.34446	7.25917	2.0
7.6244	87.9724	-0.24	0.13	0.00	-23.01	7.396	5.34542	7.26049	2.0
7.6344	87.9924	-0.24	0.13	0.00	-23.01	7.396	5.34639	7.26180	2.0
7.6444	88.0124	-0.24	0.13	0.00	-23.01	7.396	5.34736	7.26311	0.0
7.6544	88.0324	-0.24	0.13	0.00	-23.01	7.396	5.34832	7.26442	0.0
7.6644	88.0524	-0.24	0.13	0.00	-23.01	7.396	5.34929	7.26573	2.0
7.6744	88.0724	-0.24	0.13	0.00	-23.01	7.396	5.35025	7.26705	2.0
7.6844	88.0924	-0.24	0.13	0.00	-23.01	7.396	5.35122	7.26836	2.0
7.6944	88.1124	-0.24	0.13	0.00	-23.01	7.396	5.35219	7.26967	0.0
7.7044	88.1324	-0.24	0.13	0.00	-23.01	7.396	5.35315	7.27098	0.0
7.7144	88.1524	-0.24	0.13	0.00	-23.01	7.396	5.35412	7.27229	4.0
7.7244	88.1724	-0.24	0.13	0.00	-23.01	7.396	5.35508	7.27360	0.0
7.7344	88.1924	-0.24	0.13	0.00	-23.01	7.396	5.35605	7.27491	0.0
7.7444	88.2124	-0.24	0.13	0.00	-23.01	7.396	5.35701	7.27622	0.0
7.7544	88.2324	-0.24	0.13	0.00	-23.01	7.396	5.35797	7.27753	0.0
7.7644	88.2524	-0.24	0.13	0.00	-23.01	7.396	5.35894	7.27884	0.0
7.7744	88.2724	-0.24	0.13	0.00	-23.01	7.396	5.35990	7.28015	4.0
7.7844	88.2924	-0.24	0.13	0.00	-23.01	7.396	5.36087	7.28146	2.0
7.7944	88.3124	-0.24	0.13	0.00	-23.01	7.396	5.36183	7.28277	6.0
7.8044	88.3324	-0.24	0.13	0.00	-23.01	7.396	5.36280	7.28408	2.0
7.8144	88.3524	-0.24	0.13	0.00	-23.01	7.396	5.36376	7.28539	0.0
7.8244	88.3724	-0.24	0.13	0.00	-23.01	7.396	5.36472	7.28670	0.0
7.8344	88.3924	-0.24	0.13	0.00	-23.01	7.396	5.36569	7.28801	2.0
7.8444	88.4124	-0.24	0.13	0.00	-23.01	7.396	5.36665	7.28931	0.0
7.8544	88.4324	-0.24	0.13	0.00	-23.01	7.396	5.36761	7.29062	0.0
7.8644	88.4524	-0.24	0.13	0.00	-23.01	7.396	5.36857	7.29193	2.0
7.8744	88.4724	-0.24	0.13	0.00	-23.01	7.396	5.36954	7.29324	0.0
7.8844	88.4924	-0.24	0.13	0.00	-23.01	7.396	5.37050	7.29454	2.0
7.8944	88.5124	-0.24	0.13	0.00	-23.01	7.396	5.37146	7.29585	6.0
7.9044	88.5324	-0.24	0.13	0.00	-23.01	7.396	5.37242	7.29716	8.0
7.9144	88.5524	-0.24	0.13	0.00	-23.01	7.396	5.37339	7.29846	2.0
7.9244	88.5724	-0.24	0.13	0.00	-23.01	7.396	5.37435	7.29977	0.0
7.9344	88.5924	-0.24	0.13	0.00	-23.01	7.396	5.37531	7.30108	0.0
7.9444	88.6124	-0.24	0.13	0.00	-23.01	7.396	5.37627	7.30238	0.0
7.9544	88.6324	-0.24	0.13	0.00	-23.01	7.396	5.37723	7.30369	4.0
7.9644	88.6524	-0.24	0.13	0.00	-23.01	7.396	5.37819	7.30499	4.0
7.9744	88.6724	-0.24	0.13	0.00	-23.01	7.396	5.37915	7.30630	0.0
7.9844	88.6924	-0.24	0.13	0.00	-23.01	7.396	5.38011	7.30760	0.0
7.9944	88.7124	-0.24	0.13	0.00	-23.01	7.396	5.38107	7.30891	0.0
8.0044	88.7324	-0.24	0.13	0.00	-23.01	7.396	5.38203	7.31021	4.0
8.0144	88.7524	-0.24	0.13	0.00	-23.01	7.396	5.38300	7.31152	2.0
8.0244	88.7724	-0.24	0.13	0.00	-23.01	7.396	5.38396	7.31282	0.0
8.0344	88.7924	-0.24	0.13	0.00	-23.01	7.396	5.38492	7.31413	6.0
8.0444	88.8124	-0.24	0.13	0.00	-23.01	7.396	5.38588	7.31543	4.0
8.0544	88.8324	-0.24	0.13	0.00	-23.01	7.396	5.38683	7.31673	6.0
8.0644	88.8524	-0.24	0.13	0.00	-23.01	7.396	5.38779	7.31804	2.0
8.0744	88.8724	-0.24	0.13	0.00	-23.01	7.396	5.38875	7.31934	0.0
8.0844	88.8924	-0.24	0.13	0.00	-23.01	7.396	5.38971	7.32064	0.0
8.0944	88.9124	-0.24	0.13	0.00	-23.01	7.396	5.39067	7.32194	2.0
8.1044	88.9324	-0.24	0.13	0.00	-23.01	7.396	5.39163	7.32325	0.0
8.1144	88.9524	-0.24	0.13	0.00	-23.01	7.396	5.39259	7.32455	0.0
8.1244	88.9724	-0.24	0.13	0.00	-23.01	7.396	5.39355	7.32585	0.0
8.1344	88.9924	-0.24	0.13	0.00	-23.01	7.396	5.39451	7.32715	2.0
8.1444	89.0124	-0.24	0.13	0.00	-23.01	7.396	5.39546	7.32845	2.0
8.1544	89.0324	-0.24	0.13	0.00	-23.01	7.396	5.39642	7.32975	0.0

6.1944	85.0724	-0.24	0.13	0.00	-23.01	7.396	5.20111	7.06963	0.0
6.2044	85.0924	-0.24	0.13	0.00	-23.01	7.396	5.20210	7.07098	0.0
6.2144	85.1124	-0.24	0.13	0.00	-23.01	7.396	5.20309	7.07232	0.0
6.2244	85.1324	-0.24	0.13	0.00	-23.01	7.396	5.20407	7.07367	0.0
6.2344	85.1524	-0.24	0.13	0.00	-23.01	7.396	5.20506	7.07501	2.0
6.2444	85.1724	-0.24	0.13	0.00	-23.01	7.396	5.20605	7.07635	2.0
6.2544	85.1924	-0.24	0.13	0.00	-23.01	7.396	5.20704	7.07770	2.0
6.2644	85.2124	-0.24	0.13	0.00	-23.01	7.396	5.20803	7.07904	0.0
6.2744	85.2324	-0.24	0.13	0.00	-23.01	7.396	5.20902	7.08039	0.0
6.2844	85.2524	-0.24	0.13	0.00	-23.01	7.396	5.21001	7.08173	2.0
6.2944	85.2724	-0.24	0.13	0.00	-23.01	7.396	5.21099	7.08307	0.0
6.3044	85.2924	-0.24	0.13	0.00	-23.01	7.396	5.21198	7.08441	0.0
6.3144	85.3124	-0.24	0.13	0.00	-23.01	7.396	5.21297	7.08576	2.0
6.3244	85.3324	-0.24	0.13	0.00	-23.01	7.396	5.21396	7.08710	0.0
6.3344	85.3524	-0.24	0.13	0.00	-23.01	7.396	5.21494	7.08844	0.0
6.3444	85.3724	-0.24	0.13	0.00	-23.01	7.396	5.21593	7.08978	0.0
6.3544	85.3924	-0.24	0.13	0.00	-23.01	7.396	5.21692	7.09112	2.0
6.3644	85.4124	-0.24	0.13	0.00	-23.01	7.396	5.21790	7.09246	4.0
6.3744	85.4324	-0.24	0.13	0.00	-23.01	7.396	5.21889	7.09381	2.0
6.3844	85.4524	-0.24	0.13	0.00	-23.01	7.396	5.21988	7.09515	0.0
6.3944	85.4724	-0.24	0.13	0.00	-23.01	7.396	5.22086	7.09649	2.0
6.4044	85.4924	-0.24	0.13	0.00	-23.01	7.396	5.22185	7.09783	0.0
6.4144	85.5124	-0.24	0.13	0.00	-23.01	7.396	5.22284	7.09917	2.0
6.4244	85.5324	-0.24	0.13	0.00	-23.01	7.396	5.22382	7.10051	2.0
6.4344	85.5524	-0.24	0.13	0.00	-23.01	7.396	5.22481	7.10185	4.0
6.4444	85.5724	-0.24	0.13	0.00	-23.01	7.396	5.22579	7.10319	0.0
6.4544	85.5924	-0.24	0.13	0.00	-23.01	7.396	5.22678	7.10453	0.0
6.4644	85.6124	-0.24	0.13	0.00	-23.01	7.396	5.22776	7.10587	0.0
6.4744	85.6324	-0.24	0.13	0.00	-23.01	7.396	5.22875	7.10720	0.0
6.4844	85.6524	-0.24	0.13	0.00	-23.01	7.396	5.22973	7.10854	0.0
6.4944	85.6724	-0.24	0.13	0.00	-23.01	7.396	5.23072	7.10988	0.0
6.5044	85.6924	-0.24	0.13	0.00	-23.01	7.396	5.23170	7.11122	0.0
6.5144	85.7124	-0.24	0.13	0.00	-23.01	7.396	5.23269	7.11256	0.0
6.5244	85.7324	-0.24	0.13	0.00	-23.01	7.396	5.23367	7.11390	0.0
6.5344	85.7524	-0.24	0.13	0.00	-23.01	7.396	5.23465	7.11523	2.0
6.5444	85.7724	-0.24	0.13	0.00	-23.01	7.396	5.23564	7.11657	0.0
6.5544	85.7924	-0.24	0.13	0.00	-23.01	7.396	5.23662	7.11791	0.0
6.5644	85.8124	-0.24	0.13	0.00	-23.01	7.396	5.23761	7.11924	2.0
6.5744	85.8324	-0.24	0.13	0.00	-23.01	7.396	5.23859	7.12058	0.0
6.5844	85.8524	-0.24	0.13	0.00	-23.01	7.396	5.23957	7.12192	0.0
6.5944	85.8724	-0.24	0.13	0.00	-23.01	7.396	5.24056	7.12325	0.0
6.6044	85.8924	-0.24	0.13	0.00	-23.01	7.396	5.24154	7.12459	2.0
6.6144	85.9124	-0.24	0.13	0.00	-23.01	7.396	5.24252	7.12593	6.0
6.6244	85.9324	-0.24	0.13	0.00	-23.01	7.396	5.24350	7.12726	2.0
6.6344	85.9524	-0.24	0.13	0.00	-23.01	7.396	5.24449	7.12860	4.0
6.6444	85.9724	-0.24	0.13	0.00	-23.01	7.396	5.24547	7.12993	0.0
6.6544	85.9924	-0.24	0.13	0.00	-23.01	7.396	5.24645	7.13127	0.0
6.6644	86.0124	-0.24	0.13	0.00	-23.01	7.396	5.24743	7.13260	4.0
6.6744	86.0324	-0.24	0.13	0.00	-23.01	7.396	5.24841	7.13394	2.0
6.6844	86.0524	-0.24	0.13	0.00	-23.01	7.396	5.24940	7.13527	6.0
6.6944	86.0724	-0.24	0.13	0.00	-23.01	7.396	5.25038	7.13661	0.0
6.7044	86.0924	-0.24	0.13	0.00	-23.01	7.396	5.25136	7.13794	2.0
6.7144	86.1124	-0.24	0.13	0.00	-23.01	7.396	5.25234	7.13927	2.0
6.7244	86.1324	-0.24	0.13	0.00	-23.01	7.396	5.25332	7.14061	0.0
6.7344	86.1524	-0.24	0.13	0.00	-23.01	7.396	5.25430	7.14194	4.0
6.7444	86.1724	-0.24	0.13	0.00	-23.01	7.396	5.25528	7.14327	4.0
6.7544	86.1924	-0.24	0.13	0.00	-23.01	7.396	5.25626	7.14461	4.0
6.7644	86.2124	-0.24	0.13	0.00	-23.01	7.396	5.25724	7.14594	0.0
6.7744	86.2324	-0.24	0.13	0.00	-23.01	7.396	5.25822	7.14727	0.0
6.7844	86.2524	-0.24	0.13	0.00	-23.01	7.396	5.25920	7.14860	4.0
6.7944	86.2724	-0.24	0.13	0.00	-23.01	7.396	5.26018	7.14993	2.0
6.8044	86.2924	-0.24	0.13	0.00	-23.01	7.396	5.26116	7.15127	4.0
6.8144	86.3124	-0.24	0.13	0.00	-23.01	7.396	5.26214	7.15260	4.0
6.8244	86.3324	-0.24	0.13	0.00	-23.01	7.396	5.26312	7.15393	0.0
6.8344	86.3524	-0.24	0.13	0.00	-23.01	7.396	5.26410	7.15526	0.0
6.8444	86.3724	-0.24	0.13	0.00	-23.01	7.396	5.26508	7.15659	0.0
6.8544	86.3924	-0.24	0.13	0.00	-23.01	7.396	5.26606	7.15792	0.0
6.8644	86.4124	-0.24	0.13	0.00	-23.01	7.396	5.26704	7.15925	2.0
6.8744	86.4324	-0.24	0.13	0.00	-23.01	7.396	5.26802	7.16058	2.0
6.8844	86.4524	-0.24	0.13	0.00	-23.01	7.396	5.26900	7.16191	2.0
6.8944	86.4724	-0.24	0.13	0.00	-23.01	7.396	5.26997	7.16324	0.0
6.9044	86.4924	-0.24	0.13	0.00	-23.01	7.396	5.27095	7.16457	2.0
6.9144	86.5124	-0.24	0.13	0.00	-23.01	7.396	5.27193	7.16590	0.0
6.9244	86.5324	-0.24	0.13	0.00	-23.01	7.396	5.27291	7.16723	0.0
6.9344	86.5524	-0.24	0.13	0.00	-23.01	7.396	5.27389	7.16856	2.0
6.9444	86.5724	-0.24	0.13	0.00	-23.01	7.396	5.27486	7.16989	4.0
6.9544	86.5924	-0.24	0.13	0.00	-23.01	7.396	5.27584	7.17122	2.0
6.9644	86.6124	-0.24	0.13	0.00	-23.01	7.396	5.27682	7.17254	0.0
6.9744	86.6324	-0.24	0.13	0.00	-23.01	7.396	5.27780	7.17387	2.0
6.9844	86.6524	-0.24	0.13	0.00	-23.01	7.396	5.27877	7.17520	0.0
6.9944	86.6724	-0.24	0.13	0.00	-23.01	7.396	5.27975	7.17653	2.0
7.0044	86.6924	-0.24	0.13	0.00	-23.01	7.396	5.28073	7.17786	2.0
7.0144	86.7124	-0.24	0.13	0.00	-23.01	7.396	5.28170	7.17918	0.0
7.0244	86.7324	-0.24	0.13	0.00	-23.01	7.396	5.28268	7.18051	2.0
7.0344	86.7524	-0.24	0.13	0.00	-23.01	7.396	5.28365	7.18184	0.0
7.0444	86.7724	-0.24	0.13	0.00	-23.01	7.396	5.28463	7.18316	0.0
7.0544	86.7924	-0.24	0.13	0.00	-23.01	7.396	5.28561	7.18449	2.0
7.0644	86.8124	-0.24	0.13	0.00	-23.01	7.396	5.28658	7.18582	0.0
7.0744	86.8324	-0.24	0.13	0.00	-23.01	7.396	5.28756	7.18714	2.0
7.0844	86.8524	-0.24	0.13	0.00	-23.01	7.396	5.28853	7.18847	0.0
7.0944	86.8724	-0.24	0.13	0.00	-23.01	7.396	5.28951	7.18979	0.0
7.1044	86.8924	-0.24	0.13	0.00	-23.01	7.396	5.29048	7.19112	0.0
7.1144	86.9124	-0.24	0.13	0.00	-23.01	7.396	5.29146	7.19244	2.0
7.1244	86.9324	-0.24	0.13	0.00	-23.01	7.396	5.29243	7.19377	2.0
7.1344	86.9524	-0.24	0.13	0.00	-23.01	7.396	5.29341	7.19509	0.0
7.1444	86.9724	-0.24	0.13	0.00	-23.01	7.396	5.29438	7.19642	2.0
7.1544	86.9924	-0.24	0.13	0.00	-23.01	7.396	5.29535	7.19774	0.0
7.1644	87.0124	-0.24	0.13	0.00	-23.01	7.396	5.29633	7.19906	0.0
7.1744	87.0324	-0.24	0.13	0.00	-23.01	7.396	5.29730	7.20039	0.0
7.1844	87.0524	-0.24	0.13	0.00	-23.01	7.396	5.29828	7.20171	6.0
7.1944	87.0724	-0.24	0.13	0.00	-23.01	7.396	5.29925	7.20303	2.0
7.2044	87.0924	-0.24	0.13	0.00	-23.01	7.396	5.30022	7.20436	0.0
7.2144	87.1124	-0.24	0.13	0.00	-23.01	7.396	5.30120	7.20568	0.0
7.2244	87.1324	-0.24	0.13	0.00	-23.01	7.396	5.30217	7.20700	0.0
7.2344	87.1524	-0.24	0.13	0.00	-23.01	7.396	5.30314	7.20832	0.0
7.2444	87.1724	-0.24	0.13	0.00	-23.01	7.396	5.30411	7.20965	0.0
7.2544	87.1924	-0.24	0.13	0.00	-23.01	7.396	5.30509	7.21097	0.0
7.2644	87.2124	-0.24	0.13	0.00	-23.01	7.396	5.30606	7.21229	2.0
7.2744	87.2324	-0.24	0.13	0.00	-23.01	7.396	5.30703	7.21361	2.0
7.2844	87.2524	-0.24	0.13	0.00	-23.01	7.396	5.30800	7.21493	0.0
7.2944	87.2724	-0.24	0.13	0.00	-23.01	7.396	5.30898	7.21625	4.0
7.3044	87.2924	-0.24	0.13	0.00	-23.01	7.396	5.30995	7.21757	0.0
7.3144	87.3124	-0.24	0.13	0.00	-23.01	7.396	5.31092	7.21890	2.0
7.3244	87.3324	-0.24	0.13	0.00	-23.01	7.396	5.31189	7.22022	6.0
7.3344	87.3524	-0.24	0.13	0.00	-23.01	7.396	5.31286	7.22154	0.0
7.3444	87.3724	-0.24	0.13	0.00	-23.01	7.396	5.31383	7.22286	0.0
7.3544	87.3924	-0.24	0.13	0.00	-23.01	7.396	5.31480	7.22418	2.0
7.3644	87.4124	-0.24	0.13	0.00	-23.01	7.396	5.31577	7.22549	0.0
7.3744	87.4324	-0.24	0.13	0.00	-23.01	7.396	5.31674	7.22681	0.0
7.3844	87.4524	-0.24	0.13	0.00	-23.01	7.396	5.31771	7.22813	2.0
7.3944	87.4724	-0.24	0.13	0.00	-23.01	7.396	5.31869	7.22945	2.0
7.4044	87.4924	-0.24	0.13	0.00	-23.01	7.396	5.31966	7.23077	2.0
7.4144	87.5124	-0.24	0.13	0.00	-23.01	7.396	5.32063	7.23209	0.0
7.4244	87.5324	-0.24	0.13	0.00	-23.01	7.396	5.32159	7.23341	2.0
7.4344	87.5524	-0.24	0.13	0.00	-23.01	7.396	5.32256	7.23473	6.0
7.4444	87.5724	-0.24	0.13	0.00	-23.01	7.396	5.32353	7.23604	2.0
7.4544	87.5924	-0.24	0.13	0.00	-23.01	7.396	5.32450	7.23736	2.0
7.4644	87.6124	-0.24	0.13	0.00	-23.01	7.396	5.32547	7.23868	2.0
7.4744	87.6324	-0.24	0.13	0.00	-23.01	7.396	5.32644	7.23999	0.0
7.4844	87.6524	-0.24	0.13	0.00	-23.01	7.396	5.32741	7.24131	0.0
7.4944	87.6724	-0.24	0.13	0.00	-23.01	7.396	5.32838	7.24263	4.0
7.5044	87.6924	-0.24	0.13	0.00	-23.01	7.396	5.32935	7.24394	6.0
7.5144	87.7124	-0.24	0.13	0.00	-23.01	7.396	5.33032	7.24526	2.0
7.5244	87.7324	-0.24	0.13	0.00	-23.01	7.396	5.33128	7.24658	2.0
7.5344	87.7524	-0.24	0.13	0.00	-23.01	7.396	5.33225	7.24789	0.0
7.5444	87.7724	-0.24	0.13	0.00	-23.01	7.396	5.33322	7.24921	2.0
7.5544	87.7924	-0.24	0.13	0.00	-23.01	7.396	5.33419	7.25052	0.0
7.5644	87.8124	-0.24	0.13	0.00	-23.01	7.396	5.33515	7.25184	0.0
7.5744	87.8324	-0.24	0.13	0.00	-23.01	7.396	5.33612	7.25315	2.0
7.5844	87.8524	-0.24	0.13	0.00	-23.01	7.396	5.33709	7.25447	2.0
7.5944	87.8724	-0.24	0.13	0.00	-23.01	7.396	5.33806	7.25578	2.0
7.6044	87.8924	-0.24	0.13	0.00	-23.01	7.396	5.33902	7.25710	0.0
7.6144	87.9124	-0.24	0.13	0.00	-23.01	7.396	5.33999	7.25841	2.0
7.6244	87.9324	-0.24	0.13	0.00	-23.01	7.396	5.34096	7.25972	2.0
7.6344	87.9524	-0.24	0.13	0.00	-23.01	7.396	5.34192	7.26104	4.0
7.6444	87.9724	-0.24	0.13	0.00	-23.01	7.396	5.34289	7.26235	4.0
7.6544	87.9924	-0.24	0.13	0.00	-23.01	7.396	5.34385	7.26366	2.0
7.6644	88.0124	-0.24	0.13	0.00	-23.01	7.396	5.34482	7.26498	0.0
7.6744	88.0324	-0.24	0.13	0.00	-23.01	7.396	5.34579	7.26629	0.0
7.6844	88.0524	-0.24	0.13	0.00	-23.01	7.396	5.34675	7.26760	0.0
7.6944	88.0724	-0.24	0.13	0.00	-23.01	7.396	5.34772	7.26891	0.0
7.7044	88.0924	-0.24	0.13	0.00	-23.01	7.396	5.34868	7.27023	2.0
7.7144	88.1124	-0.24	0.13	0.00	-23.01	7.396	5.34965	7.27154	0.0
7.7244	88.1324	-0.24	0.13	0.00	-23.01	7.396	5.35061	7.27285	4.0
7.7344	88.1524	-0.24	0.13	0.00	-23.01	7.396	5.35158	7.27416	0.0
7.7444	88.1724	-0.24	0.13	0.00	-23.01	7.396	5.35254	7.27547	0.0
7.7544	88.1924	-0.24	0.13	0.00	-23.01	7.396	5.35351	7.27678	2.0
7.7644	88.2124	-0.24	0.13	0.00	-23.01	7.396	5.35447	7.27809	4.0
7.7744	88.2324	-0.24	0.13	0.00	-23.01	7.396	5.35543	7.27940	0.0
7.7844	88.2524	-0.24	0.13	0.00	-23.01	7.396	5.35640	7.28071	0.0
7.7944	88.2724	-0.24	0.13	0.00	-23.01	7.396	5.35736	7.28202	2.0
7.8044	88.2924	-0.24	0.13	0.00	-23.01	7.396	5.35833	7.28333	2.0
7.8144	88.3124	-0.24	0.13	0.00	-23.01	7.396	5.35929	7.28464	2.0
7.8244	88.3324	-0.24	0.13	0.00	-23.01	7.396	5.36025	7.28595	0.0
7.8344	88.3524	-0.24	0.13	0.00	-23.01	7.396	5.36122	7.28726	2.0
7.8444	88.3724	-0.24	0.13	0.00	-23.01	7.396	5.36218	7.28857	0.0
7.8544	88.3924	-0.24	0.13	0.00	-23.01	7.396	5.36314	7.28988	0.0
7.8644	88.4124	-0.24	0.13	0.00	-23.01	7.396	5.36410	7.29119	0.0
7.8744	88.4324	-0.24	0.13	0.00	-23.01	7.396	5.36507	7.29250	2.0
7.8844	88.4524	-0.24	0.13	0.00	-23.01	7.396	5.36603	7.29380	2.0
7.8944	88.4724	-0.24	0.13	0.00	-23.01	7.396	5.36699	7.29511	0.0
7.9044	88.4924	-0.24	0.13	0.00	-23.01	7.396	5.36795	7.29642	0.0
7.9144	88.5124	-0.24	0.13	0.00	-23.01	7.396	5.36891	7.29773	0.0
7.9244	88.5324	-0.24	0.13	0.00	-23.01	7.396	5.36988	7.29903	0.0
7.9344	88.5524	-0.24	0.13	0.00	-23.01	7.396	5.37084	7.30034	0.0
7.9444	88.5724	-0.24	0.13	0.00	-23.01	7.396	5.37180	7.30165	2.0
7.9544	88.5924	-0.24	0.13	0.00	-23.01	7.396	5.37276	7.30295	0.0
7.9644	88.6124	-0.24	0.13	0.00	-23.01	7.396	5.37372	7.30426	2.0
7.9744	88.6324	-0.24	0.13	0.00	-23.01	7.396	5.37468	7.30557	0.0
7.9844	88.6524	-0.24	0.13	0.00	-23.01	7.396	5.37564	7.30687	2.0
7.9944	88.6724	-0.24	0.13	0.00	-23.01	7.396	5.37660	7.30818	6.0
8.0044	88.6924	-0.24	0.13	0.00	-23.01	7.396	5.37756	7.30948	0.0
8.0144	88.7124	-0.24	0.13	0.00	-23.01	7.396	5.37852	7.31079	0.0
8.0244	88.7324	-0.24	0.13	0.00	-23.01	7.396	5.37948	7.31209	2.0
8.0344	88.7524	-0.24	0.13	0.00	-23.01	7.396	5.38044	7.31340	0.0
8.0444	88.7724	-0.24	0.13	0.00	-23.01	7.396	5.38140	7.31470	0.0
8.0544	88.7924	-0.24	0.13	0.00	-23.01	7.396	5.38236	7.31601	0.0
8.0644	88.8124	-0.24	0.13	0.00	-23.01	7.396	5.38332	7.31731	2.0
8.0744	88.8324	-0.24	0.13	0.00	-23.01	7.396	5.38428	7.31861	4.0
8.0844	88.8524	-0.24	0.13	0.00	-23.01	7.396	5.38524	7.31992	0.0
8.0944	88.8724	-0.24	0.13	0.00	-23.01	7.396	5.38620	7.32122	4.0
8.1044	88.8924	-0.24	0.13	0.00	-23.01	7.396	5.38716	7.32252	0.0
8.1144	88.9124	-0.24	0.13	0.00	-23.01	7.396	5.38812	7.32383	4.0
8.1244	88.9324	-0.24	0.13	0.00	-23.01	7.396	5.38907	7.32513	0.0
8.1344	88.9524	-0.24	0.13	0.00	-23.01	7.396	5.39003	7.32643	0.0
8.1444	88.9724	-0.24	0.13	0.00	-23.01	7.396	5.39099	7.32773	0.0
8.1544	88.9924	-0.24	0.13	0.00	-23.01	7.396	5.39195	7.32903	2.0
8.1644	89.0124	-0.24	0.13	0.00	-23.01	7.396	5.39291	7.33034	0.0
8.1744	89.0324	-0.24	0.13	0.00	-23.01	7.396	5.39386	7.33164	2.0

6.2144	85.0724	-0.24	0.13	0.00	-23.01	7.396	5.19864	7.07145	0.0
6.2244	85.0924	-0.24	0.13	0.00	-23.01	7.396	5.19963	7.07279	0.0
6.2344	85.1124	-0.24	0.13	0.00	-23.01	7.396	5.20062	7.07414	0.0
6.2444	85.1324	-0.24	0.13	0.00	-23.01	7.396	5.20160	7.07548	8.0
6.2544	85.1524	-0.24	0.13	0.00	-23.01	7.396	5.20259	7.07683	0.0
6.2644	85.1724	-0.24	0.13	0.00	-23.01	7.396	5.20358	7.07817	0.0
6.2744	85.1924	-0.24	0.13	0.00	-23.01	7.396	5.20457	7.07952	0.0
6.2844	85.2124	-0.24	0.13	0.00	-23.01	7.396	5.20556	7.08086	0.0
6.2944	85.2324	-0.24	0.13	0.00	-23.01	7.396	5.20655	7.08220	2.0
6.3044	85.2524	-0.24	0.13	0.00	-23.01	7.396	5.20753	7.08355	0.0
6.3144	85.2724	-0.24	0.13	0.00	-23.01	7.396	5.20852	7.08489	0.0
6.3244	85.2924	-0.24	0.13	0.00	-23.01	7.396	5.20951	7.08623	0.0
6.3344	85.3124	-0.24	0.13	0.00	-23.01	7.396	5.21049	7.08758	2.0
6.3444	85.3324	-0.24	0.13	0.00	-23.01	7.396	5.21148	7.08892	2.0
6.3544	85.3524	-0.24	0.13	0.00	-23.01	7.396	5.21247	7.09026	2.0
6.3644	85.3724	-0.24	0.13	0.00	-23.01	7.396	5.21345	7.09160	2.0
6.3744	85.3924	-0.24	0.13	0.00	-23.01	7.396	5.21444	7.09294	2.0
6.3844	85.4124	-0.24	0.13	0.00	-23.01	7.396	5.21543	7.09429	0.0
6.3944	85.4324	-0.24	0.13	0.00	-23.01	7.396	5.21641	7.09563	0.0
6.4044	85.4524	-0.24	0.13	0.00	-23.01	7.396	5.21740	7.09697	4.0
6.4144	85.4724	-0.24	0.13	0.00	-23.01	7.396	5.21839	7.09831	0.0
6.4244	85.4924	-0.24	0.13	0.00	-23.01	7.396	5.21937	7.09965	0.0
[...]
8.9944	86.7924	-0.24	0.13	0.00	-23.01	7.396	5.03936	7.35930	4.0
9.0044	86.8124	-0.24	0.13	0.00	-23.01	7.396	5.04029	7.36066	0.0
9.0144	86.8324	-0.24	0.13	0.00	-23.01	7.396	5.04122	7.36202	2.0
9.0244	86.8524	-0.24	0.13	0.00	-23.01	7.396	5.04215	7.36338	2.0
9.0344	86.8724	-0.24	0.13	0.00	-23.01	7.396	5.04308	7.36474	0.0
9.0444	86.8924	-0.24	0.13	0.00	-23.01	7.396	5.04401	7.36609	0.0
9.0544	86.9124	-0.24	0.13	0.00	-23.01	7.396	5.04494	7.36745	0.0
9.0644	86.9324	-0.24	0.13	0.00	-23.01	7.396	5.04587	7.36881	6.0
9.0744	86.9524	-0.24	0.13	0.00	-23.01	7.396	5.04680	7.37016	0.0
9.0844	86.9724	-0.24	0.13	0.00	-23.01	7.396	5.04773	7.37152	0.0
9.0944	86.9924	-0.24	0.13	0.00	-23.01	7.396	5.04865	7.37288	0.0
9.1044	87.0124	-0.24	0.13	0.00	-23.01	7.396	5.04958	7.37423	0.0
9.1144	87.0324	-0.24	0.13	0.00	-23.01	7.396	5.05051	7.37559	2.0
9.1244	87.0524	-0.24	0.13	0.00	-23.01	7.396	5.05144	7.37694	2.0
9.1344	87.0724	-0.24	0.13	0.00	-23.01	7.396	5.05237	7.37830	0.0
9.1444	87.0924	-0.24	0.13	0.00	-23.01	7.396	5.05330	7.37966	4.0
9.1544	87.1124	-0.24	0.13	0.00	-23.01	7.396	5.05422	7.38101	6.0
9.1644	87.1324	-0.24	0.13	0.00	-23.01	7.396	5.05515	7.38237	2.0
9.1744	87.1524	-0.24	0.13	0.00	-23.01	7.396	5.05608	7.38372	0.0
9.1844	87.1724	-0.24	0.13	0.00	-23.01	7.396	5.05701	7.38507	2.0
9.1944	87.1924	-0.24	0.13	0.00	-23.01	7.396	5.05793	7.38643	4.0
9.2044	87.2124	-0.24	0.13	0.00	-23.01	7.396	5.05886	7.38778	2.0
9.2144	87.2324	-0.24	0.13	0.00	-23.01	7.396	5.05979	7.38914	0.0
9.2244	87.2524	-0.24	0.13	0.00	-23.01	7.396	5.06071	7.39049	4.0
9.2344	87.2724	-0.24	0.13	0.00	-23.01	7.396	5.06164	7.39184	4.0
9.2444	87.2924	-0.24	0.13	0.00	-23.01	7.396	5.06257	7.39320	2.0
9.2544	87.3124	-0.24	0.13	0.00	-23.01	7.396	5.06349	7.39455	0.0
9.2644	87.3324	-0.24	0.13	0.00	-23.01	7.396	5.06442	7.39590	2.0
9.2744	87.3524	-0.24	0.13	0.00	-23.01	7.396	5.06535	7.39725	0.0
9.2844	87.3724	-0.24	0.13	0.00	-23.01	7.396	5.06627	7.39860	4.0
9.2944	87.3924	-0.24	0.13	0.00	-23.01	7.396	5.06720	7.39996	4.0
9.3044	87.4124	-0.24	0.13	0.00	-23.01	7.396	5.06812	7.40131	0.0
9.3144	87.4324	-0.24	0.13	0.00	-23.01	7.396	5.06905	7.40266	0.0
9.3244	87.4524	-0.24	0.13	0.00	-23.01	7.396	5.06997	7.40401	0.0
9.3344	87.4724	-0.24	0.13	0.00	-23.01	7.396	5.07090	7.40536	0.0
9.3444	87.4924	-0.24	0.13	0.00	-23.01	7.396	5.07182	7.40671	4.0
9.3544	87.5124	-0.24	0.13	0.00	-23.01	7.396	5.07275	7.40806	2.0
9.3644	87.5324	-0.24	0.13	0.00	-23.01	7.396	5.07367	7.40941	0.0
9.3744	87.5524	-0.24	0.13	0.00	-23.01	7.396	5.07460	7.41076	4.0
9.3844	87.5724	-0.24	0.13	0.00	-23.01	7.396	5.07552	7.41211	2.0
9.3944	87.5924	-0.24	0.13	0.00	-23.01	7.396	5.07645	7.41346	0.0
9.4044	87.6124	-0.24	0.13	0.00	-23.01	7.396	5.07737	7.41481	0.0
9.4144	87.6324	-0.24	0.13	0.00	-23.01	7.396	5.07829	7.41616	0.0
9.4244	87.6524	-0.24	0.13	0.00	-23.01	7.396	5.07922	7.41751	4.0
9.4344	87.6724	-0.24	0.13	0.00	-23.01	7.396	5.08014	7.41886	4.0
9.4444	87.6924	-0.24	0.13	0.00	-23.01	7.396	5.08106	7.42021	4.0
9.4544	87.7124	-0.24	0.13	0.00	-23.01	7.396	5.08199	7.42155	0.0
9.4644	87.7324	-0.24	0.13	0.00	-23.01	7.396	5.08291	7.42290	2.0
9.4744	87.7524	-0.24	0.13	0.00	-23.01	7.396	5.08383	7.42425	2.0
9.4844	87.7724	-0.24	0.13	0.00	-23.01	7.396	5.08476	7.42560	2.0
9.4944	87.7924	-0.24	0.13	0.00	-23.01	7.396	5.08568	7.42695	2.0
9.5044	87.8124	-0.24	0.13	0.00	-23.01	7.396	5.08660	7.42829	2.0
9.5144	87.8324	-0.24	0.13	0.00	-23.01	7.396	5.08752	7.42964	0.0
9.5244	87.8524	-0.24	0.13	0.00	-23.01	7.396	5.08844	7.43099	4.0
9.5344	87.8724	-0.24	0.13	0.00	-23.01	7.396	5.08937	7.43233	6.0
9.5444	87.8924	-0.24	0.13	0.00	-23.01	7.396	5.09029	7.43368	2.0
9.5544	87.9124	-0.24	0.13	0.00	-23.01	7.396	5.09121	7.43502	2.0
9.5644	87.9324	-0.24	0.13	0.00	-23.01	7.396	5.09213	7.43637	0.0
9.5744	87.9524	-0.24	0.13	0.00	-23.01	7.396	5.09305	7.43772	4.0
9.5844	87.9724	-0.24	0.13	0.00	-23.01	7.396	5.09397	7.43906	0.0
9.5944	87.9924	-0.24	0.13	0.00	-23.01	7.396	5.09490	7.44041	0.0
9.6044	88.0124	-0.24	0.13	0.00	-23.01	7.396	5.09582	7.44175	0.0
9.6144	88.0324	-0.24	0.13	0.00	-23.01	7.396	5.09674	7.44309	0.0
9.6244	88.0524	-0.24	0.13	0.00	-23.01	7.396	5.09766	7.44444	2.0
9.6344	88.0724	-0.24	0.13	0.00	-23.01	7.396	5.09858	7.44578	0.0
9.6444	88.0924	-0.24	0.13	0.00	-23.01	7.396	5.09950	7.44713	2.0
9.6544	88.1124	-0.24	0.13	0.00	-23.01	7.396	5.10042	7.44847	4.0
9.6644	88.1324	-0.24	0.13	0.00	-23.01	7.396	5.10134	7.44981	0.0
9.6744	88.1524	-0.24	0.13	0.00	-23.01	7.396	5.10226	7.45116	0.0
9.6844	88.1724	-0.24	0.13	0.00	-23.01	7.396	5.10318	7.45250	0.0
9.6944	88.1924	-0.24	0.13	0.00	-23.01	7.396	5.10410	7.45384	4.0
9.7044	88.2124	-0.24	0.13	0.00	-23.01	7.396	5.10502	7.45519	6.0
9.7144	88.2324	-0.24	0.13	0.00	-23.01	7.396	5.10594	7.45653	2.0
9.7244	88.2524	-0.24	0.13	0.00	-23.01	7.396	5.10685	7.45787	0.0
9.7344	88.2724	-0.24	0.13	0.00	-23.01	7.396	5.10777	7.45921	6.0
9.7444	88.2924	-0.24	0.13	0.00	-23.01	7.396	5.10869	7.46055	2.0
9.7544	88.3124	-0.24	0.13	0.00	-23.01	7.396	5.10961	7.46190	2.0
9.7644	88.3324	-0.24	0.13	0.00	-23.01	7.396	5.11053	7.46324	2.0
9.7744	88.3524	-0.24	0.13	0.00	-23.01	7.396	5.11145	7.46458	0.0
9.7844	88.3724	-0.24	0.13	0.00	-23.01	7.396	5.11237	7.46592	0.0
9.7944	88.3924	-0.24	0.13	0.00	-23.01	7.396	5.11328	7.46726	2.0
9.8044	88.4124	-0.24	0.13	0.00	-23.01	7.396	5.11420	7.46860	4.0
9.8144	88.4324	-0.24	0.13	0.00	-23.01	7.396	5.11512	7.46994	2.0
9.8244	88.4524	-0.24	0.13	0.00	-23.01	7.396	5.11604	7.47128	2.0
9.8344	88.4724	-0.24	0.13	0.00	-23.01	7.396	5.11695	7.47262	0.0
9.8444	88.4924	-0.24	0.13	0.00	-23.01	7.396	5.11787	7.47396	0.0
9.8544	88.5124	-0.24	0.13	0.00	-23.01	7.396	5.11879	7.47530	0.0
9.8644	88.5324	-0.24	0.13	0.00	-23.01	7.396	5.11970	7.47664	0.0
9.8744	88.5524	-0.24	0.13	0.00	-23.01	7.396	5.12062	7.47797	0.0
9.8844	88.5724	-0.24	0.13	0.00	-23.01	7.396	5.12154	7.47931	0.0
9.8944	88.5924	-0.24	0.13	0.00	-23.01	7.396	5.12245	7.48065	0.0
9.9044	88.6124	-0.24	0.13	0.00	-23.01	7.396	5.12337	7.48199	4.0
9.9144	88.6324	-0.24	0.13	0.00	-23.01	7.396	5.12429	7.48333	0.0
9.9244	88.6524	-0.24	0.13	0.00	-23.01	7.396	5.12520	7.48466	2.0
9.9344	88.6724	-0.24	0.13	0.00	-23.01	7.396	5.12612	7.48600	6.0
9.9444	88.6924	-0.24	0.13	0.00	-23.01	7.396	5.12703	7.48734	6.0
9.9544	88.7124	-0.24	0.13	0.00	-23.01	7.396	5.12795	7.48868	2.0
9.9644	88.7324	-0.24	0.13	0.00	-23.01	7.396	5.12886	7.49001	0.0
9.9744	88.7524	-0.24	0.13	0.00	-23.01	7.396	5.12978	7.49135	0.0
9.9844	88.7724	-0.24	0.13	0.00	-23.01	7.396	5.13069	7.49268	2.0
9.9944	88.7924	-0.24	0.13	0.00	-23.01	7.396	5.13161	7.49402	0.0
10.0044	88.8124	-0.24	0.13	0.00	-23.01	7.396	5.13252	7.49536	0.0
10.0144	88.8324	-0.24	0.13	0.00	-23.01	7.396	5.13344	7.49669	0.0
10.0244	88.8524	-0.24	0.13	0.00	-23.01	7.396	5.13435	7.49803	6.0
10.0344	88.8724	-0.24	0.13	0.00	-23.01	7.396	5.13527	7.49936	0.0
10.0444	88.8924	-0.24	0.13	0.00	-23.01	7.396	5.13618	7.50070	0.0
10.0544	88.9124	-0.24	0.13	0.00	-23.01	7.396	5.13709	7.50203	2.0
10.0644	88.9324	-0.24	0.13	0.00	-23.01	7.396	5.13801	7.50337	0.0
10.0744	88.9524	-0.24	0.13	0.00	-23.01	7.396	5.13892	7.50470	0.0
10.0844	88.9724	-0.24	0.13	0.00	-23.01	7.396	5.13983	7.50603	0.0
10.0944	88.9924	-0.24	0.13	0.00	-23.01	7.396	5.14075	7.50737	0.0
10.1044	89.0124	-0.24	0.13	0.00	-23.01	7.396	5.14166	7.50870	2.0
10.1144	89.0324	-0.24	0.13	0.00	-23.01	7.396	5.14257	7.51003	0.0

8.1544	85.0724	-0.24	0.13	0.00	-23.01	7.396	4.95627	7.24338	2.0
8.1644	85.0924	-0.24	0.13	0.00	-23.01	7.396	4.95721	7.24476	4.0
8.1744	85.1124	-0.24	0.13	0.00	-23.01	7.396	4.95816	7.24614	0.0
8.1844	85.1324	-0.24	0.13	0.00	-23.01	7.396	4.95910	7.24752	4.0
8.1944	85.1524	-0.24	0.13	0.00	-23.01	7.396	4.96004	7.24889	0.0
8.2044	85.1724	-0.24	0.13	0.00	-23.01	7.396	4.96098	7.25027	2.0
8.2144	85.1924	-0.24	0.13	0.00	-23.01	7.396	4.96192	7.25165	2.0
8.2244	85.2124	-0.24	0.13	0.00	-23.01	7.396	4.96287	7.25302	0.0
8.2344	85.2324	-0.24	0.13	0.00	-23.01	7.396	4.96381	7.25440	2.0
8.2444	85.2524	-0.24	0.13	0.00	-23.01	7.396	4.96475	7.25578	0.0
8.2544	85.2724	-0.24	0.13	0.00	-23.01	7.396	4.96569	7.25715	4.0
8.2644	85.2924	-0.24	0.13	0.00	-23.01	7.396	4.96663	7.25853	4.0
8.2744	85.3124	-0.24	0.13	0.00	-23.01	7.396	4.96757	7.25990	0.0
8.2844	85.3324	-0.24	0.13	0.00	-23.01	7.396	4.96851	7.26128	2.0
8.2944	85.3524	-0.24	0.13	0.00	-23.01	7.396	4.96945	7.26265	0.0
8.3044	85.3724	-0.24	0.13	0.00	-23.01	7.396	4.97040	7.26403	0.0
8.3144	85.3924	-0.24	0.13	0.00	-23.01	7.396	4.97134	7.26540	0.0
8.3244	85.4124	-0.24	0.13	0.00	-23.01	7.396	4.97228	7.26678	2.0
8.3344	85.4324	-0.24	0.13	0.00	-23.01	7.396	4.97322	7.26815	0.0
8.3444	85.4524	-0.24	0.13	0.00	-23.01	7.396	4.97416	7.26952	0.0
8.3544	85.4724	-0.24	0.13	0.00	-23.01	7.396	4.97510	7.27090	2.0
8.3644	85.4924	-0.24	0.13	0.00	-23.01	7.396	4.97604	7.27227	0.0
8.3744	85.5124	-0.24	0.13	0.00	-23.01	7.396	4.97698	7.27364	0.0
8.3844	85.5324	-0.24	0.13	0.00	-23.01	7.396	4.97791	7.27502	2.0
8.3944	85.5524	-0.24	0.13	0.00	-23.01	7.396	4.97885	7.27639	0.0
8.4044	85.5724	-0.24	0.13	0.00	-23.01	7.396	4.97979	7.27776	6.0
8.4144	85.5924	-0.24	0.13	0.00	-23.01	7.396	4.98073	7.27913	0.0
8.4244	85.6124	-0.24	0.13	0.00	-23.01	7.396	4.98167	7.28051	2.0
8.4344	85.6324	-0.24	0.13	0.00	-23.01	7.396	4.98261	7.28188	0.0
8.4444	85.6524	-0.24	0.13	0.00	-23.01	7.396	4.98355	7.28325	0.0
8.4544	85.6724	-0.24	0.13	0.00	-23.01	7.396	4.98449	7.28462	0.0
8.4644	85.6924	-0.24	0.13	0.00	-23.01	7.396	4.98542	7.28599	4.0
8.4744	85.7124	-0.24	0.13	0.00	-23.01	7.396	4.98636	7.28736	0.0
8.4844	85.7324	-0.24	0.13	0.00	-23.01	7.396	4.98730	7.28873	0.0
8.4944	85.7524	-0.24	0.13	0.00	-23.01	7.396	4.98824	7.29010	0.0
8.5044	85.7724	-0.24	0.13	0.00	-23.01	7.396	4.98918	7.29148	0.0
8.5144	85.7924	-0.24	0.13	0.00	-23.01	7.396	4.99011	7.29285	0.0
8.5244	85.8124	-0.24	0.13	0.00	-23.01	7.396	4.99105	7.29422	2.0
8.5344	85.8324	-0.24	0.13	0.00	-23.01	7.396	4.99199	7.29558	4.0
8.5444	85.8524	-0.24	0.13	0.00	-23.01	7.396	4.99292	7.29695	0.0
8.5544	85.8724	-0.24	0.13	0.00	-23.01	7.396	4.99386	7.29832	0.0
8.5644	85.8924	-0.24	0.13	0.00	-23.01	7.396	4.99480	7.29969	0.0
8.5744	85.9124	-0.24	0.13	0.00	-23.01	7.396	4.99573	7.30106	2.0
8.5844	85.9324	-0.24	0.13	0.00	-23.01	7.396	4.99667	7.30243	0.0
8.5944	85.9524	-0.24	0.13	0.00	-23.01	7.396	4.99761	7.30380	2.0
8.6044	85.9724	-0.24	0.13	0.00	-23.01	7.396	4.99854	7.30517	0.0
8.6144	85.9924	-0.24	0.13	0.00	-23.01	7.396	4.99948	7.30653	2.0
8.6244	86.0124	-0.24	0.13	0.00	-23.01	7.396	5.00042	7.30790	0.0
8.6344	86.0324	-0.24	0.13	0.00	-23.01	7.396	5.00135	7.30927	0.0
8.6444	86.0524	-0.24	0.13	0.00	-23.01	7.396	5.00229	7.31064	0.0
8.6544	86.0724	-0.24	0.13	0.00	-23.01	7.396	5.00322	7.31200	0.0
8.6644	86.0924	-0.24	0.13	0.00	-23.01	7.396	5.00416	7.31337	2.0
8.6744	86.1124	-0.24	0.13	0.00	-23.01	7.396	5.00509	7.31474	0.0
8.6844	86.1324	-0.24	0.13	0.00	-23.01	7.396	5.00603	7.31610	2.0
8.6944	86.1524	-0.24	0.13	0.00	-23.01	7.396	5.00696	7.31747	0.0
8.7044	86.1724	-0.24	0.13	0.00	-23.01	7.396	5.00790	7.31883	2.0
8.7144	86.1924	-0.24	0.13	0.00	-23.01	7.396	5.00883	7.32020	0.0
8.7244	86.2124	-0.24	0.13	0.00	-23.01	7.396	5.00976	7.32156	0.0
8.7344	86.2324	-0.24	0.13	0.00	-23.01	7.396	5.01070	7.32293	2.0
8.7444	86.2524	-0.24	0.13	0.00	-23.01	7.396	5.01163	7.32429	0.0
8.7544	86.2724	-0.24	0.13	0.00	-23.01	7.396	5.01257	7.32566	0.0
8.7644	86.2924	-0.24	0.13	0.00	-23.01	7.396	5.01350	7.32702	0.0
8.7744	86.3124	-0.24	0.13	0.00	-23.01	7.396	5.01443	7.32839	4.0
8.7844	86.3324	-0.24	0.13	0.00	-23.01	7.396	5.01537	7.32975	0.0
8.7944	86.3524	-0.24	0.13	0.00	-23.01	7.396	5.01630	7.33112	0.0
8.8044	86.3724	-0.24	0.13	0.00	-23.01	7.396	5.01723	7.33248	0.0
8.8144	86.3924	-0.24	0.13	0.00	-23.01	7.396	5.01817	7.33384	0.0
8.8244	86.4124	-0.24	0.13	0.00	-23.01	7.396	5.01910	7.33521	0.0
8.8344	86.4324	-0.24	0.13	0.00	-23.01	7.396	5.02003	7.33657	2.0
8.8444	86.4524	-0.24	0.13	0.00	-23.01	7.396	5.02096	7.33793	0.0
8.8544	86.4724	-0.24	0.13	0.00	-23.01	7.396	5.02190	7.33929	0.0
8.8644	86.4924	-0.24	0.13	0.00	-23.01	7.396	5.02283	7.34066	0.0
8.8744	86.5124	-0.24	0.13	0.00	-23.01	7.396	5.02376	7.34202	2.0
8.8844	86.5324	-0.24	0.13	0.00	-23.01	7.396	5.02469	7.34338	0.0
8.8944	86.5524	-0.24	0.13	0.00	-23.01	7.396	5.02562	7.34474	2.0
8.9044	86.5724	-0.24	0.13	0.00	-23.01	7.396	5.02655	7.34610	4.0
8.9144	86.5924	-0.24	0.13	0.00	-23.01	7.396	5.02749	7.34746	2.0
8.9244	86.6124	-0.24	0.13	0.00	-23.01	7.396	5.02842	7.34882	0.0
8.9344	86.6324	-0.24	0.13	0.00	-23.01	7.396	5.02935	7.35019	0.0
8.9444	86.6524	-0.24	0.13	0.00	-23.01	7.396	5.03028	7.35155	2.0
8.9544	86.6724	-0.24	0.13	0.00	-23.01	7.396	5.03121	7.35291	4.0
8.9644	86.6924	-0.24	0.13	0.00	-23.01	7.396	5.03214	7.35427	0.0
8.9744	86.7124	-0.24	0.13	0.00	-23.01	7.396	5.03307	7.35563	2.0
8.9844	86.7324	-0.24	0.13	0.00	-23.01	7.396	5.03400	7.35699	0.0
8.9944	86.7524	-0.24	0.13	0.00	-23.01	7.396	5.03493	7.35834	0.0
9.0044	86.7724	-0.24	0.13	0.00	-23.01	7.396	5.03586	7.35970	4.0
9.0144	86.7924	-0.24	0.13	0.00	-23.01	7.396	5.03679	7.36106	0.0
9.0244	86.8124	-0.24	0.13	0.00	-23.01	7.396	5.03772	7.36242	4.0
9.0344	86.8324	-0.24	0.13	0.00	-23.01	7.396	5.03865	7.36378	0.0
9.0444	86.8524	-0.24	0.13	0.00	-23.01	7.396	5.03958	7.36514	0.0
9.0544	86.8724	-0.24	0.13	0.00	-23.01	7.396	5.04051	7.36650	0.0
9.0644	86.8924	-0.24	0.13	0.00	-23.01	7.396	5.04144	7.36785	0.0
9.0744	86.9124	-0.24	0.13	0.00	-23.01	7.396	5.04237	7.36921	2.0
9.0844	86.9324	-0.24	0.13	0.00	-23.01	7.396	5.04330	7.37057	2.0
9.0944	86.9524	-0.24	0.13	0.00	-23.01	7.396	5.04422	7.37193	2.0
9.1044	86.9724	-0.24	0.13	0.00	-23.01	7.396	5.04515	7.37328	2.0
9.1144	86.9924	-0.24	0.13	0.00	-23.01	7.396	5.04608	7.37464	8.0
9.1244	87.0124	-0.24	0.13	0.00	-23.01	7.396	5.04701	7.37600	6.0
9.1344	87.0324	-0.24	0.13	0.00	-23.01	7.396	5.04794	7.37735	0.0
9.1444	87.0524	-0.24	0.13	0.00	-23.01	7.396	5.04886	7.37871	0.0
9.1544	87.0724	-0.24	0.13	0.00	-23.01	7.396	5.04979	7.38006	4.0
9.1644	87.0924	-0.24	0.13	0.00	-23.01	7.396	5.05072	7.38142	0.0
9.1744	87.1124	-0.24	0.13	0.00	-23.01	7.396	5.05165	7.38277	0.0
9.1844	87.1324	-0.24	0.13	0.00	-23.01	7.396	5.05257	7.38413	4.0
9.1944	87.1524	-0.24	0.13	0.00	-23.01	7.396	5.05350	7.38548	0.0
9.2044	87.1724	-0.24	0.13	0.00	-23.01	7.396	5.05443	7.38684	2.0
9.2144	87.1924	-0.24	0.13	0.00	-23.01	7.396	5.05536	7.38819	0.0
9.2244	87.2124	-0.24	0.13	0.00	-23.01	7.396	5.05628	7.38955	2.0
9.2344	87.2324	-0.24	0.13	0.00	-23.01	7.396	5.05721	7.39090	2.0
9.2444	87.2524	-0.24	0.13	0.00	-23.01	7.396	5.05813	7.39226	0.0
9.2544	87.2724	-0.24	0.13	0.00	-23.01	7.396	5.05906	7.39361	8.0
9.2644	87.2924	-0.24	0.13	0.00	-23.01	7.396	5.05999	7.39496	2.0
9.2744	87.3124	-0.24	0.13	0.00	-23.01	7.396	5.06091	7.39631	2.0
9.2844	87.3324	-0.24	0.13	0.00	-23.01	7.396	5.06184	7.39767	0.0
9.2944	87.3524	-0.24	0.13	0.00	-23.01	7.396	5.06276	7.39902	2.0
9.3044	87.3724	-0.24	0.13	0.00	-23.01	7.396	5.06369	7.40037	4.0
9.3144	87.3924	-0.24	0.13	0.00	-23.01	7.396	5.06461	7.40172	0.0
9.3244	87.4124	-0.24	0.13	0.00	-23.01	7.396	5.06554	7.40308	2.0
9.3344	87.4324	-0.24	0.13	0.00	-23.01	7.396	5.06646	7.40443	2.0
9.3444	87.4524	-0.24	0.13	0.00	-23.01	7.396	5.06739	7.40578	0.0
9.3544	87.4724	-0.24	0.13	0.00	-23.01	7.396	5.06831	7.40713	2.0
9.3644	87.4924	-0.24	0.13	0.00	-23.01	7.396	5.06924	7.40848	2.0
9.3744	87.5124	-0.24	0.13	0.00	-23.01	7.396	5.07016	7.40983	0.0
9.3844	87.5324	-0.24	0.13	0.00	-23.01	7.396	5.07109	7.41118	0.0
9.3944	87.5524	-0.24	0.13	0.00	-23.01	7.396	5.07201	7.41253	0.0
9.4044	87.5724	-0.24	0.13	0.00	-23.01	7.396	5.07293	7.41388	2.0
9.4144	87.5924	-0.24	0.13	0.00	-23.01	7.396	5.07386	7.41523	0.0
9.4244	87.6124	-0.24	0.13	0.00	-23.01	7.396	5.07478	7.41658	2.0
9.4344	87.6324	-0.24	0.13	0.00	-23.01	7.396	5.07570	7.41793	2.0
9.4444	87.6524	-0.24	0.13	0.00	-23.01	7.396	5.07663	7.41928	8.0
9.4544	87.6724	-0.24	0.13	0.00	-23.01	7.396	5.07755	7.42063	0.0
9.4644	87.6924	-0.24	0.13	0.00	-23.01	7.396	5.07847	7.42198	2.0
9.4744	87.7124	-0.24	0.13	0.00	-23.01	7.396	5.07940	7.42333	4.0
9.4844	87.7324	-0.24	0.13	0.00	-23.01	7.396	5.08032	7.42468	2.0
9.4944	87.7524	-0.24	0.13	0.00	-23.01	7.396	5.08124	7.42602	2.0
9.5044	87.7724	-0.24	0.13	0.00	-23.01	7.396	5.08216	7.42737	0.0
9.5144	87.7924	-0.24	0.13	0.00	-23.01	7.396	5.08309	7.42872	2.0
9.5244	87.8124	-0.24	0.13	0.00	-23.01	7.396	5.08401	7.43007	0.0
9.5344	87.8324	-0.24	0.13	0.00	-23.01	7.396	5.08493	7.43141	0.0
9.5444	87.8524	-0.24	0.13	0.00	-23.01	7.396	5.08585	7.43276	2.0
9.5544	87.8724	-0.24	0.13	0.00	-23.01	7.396	5.08677	7.43411	0.0
9.5644	87.8924	-0.24	0.13	0.00	-23.01	7.396	5.08769	7.43545	2.0
9.5744	87.9124	-0.24	0.13	0.00	-23.01	7.396	5.08861	7.43680	0.0
9.5844	87.9324	-0.24	0.13	0.00	-23.01	7.396	5.08954	7.43815	0.0
9.5944	87.9524	-0.24	0.13	0.00	-23.01	7.396	5.09046	7.43949	0.0
9.6044	87.9724	-0.24	0.13	0.00	-23.01	7.396	5.09138	7.44084	2.0
9.6144	87.9924	-0.24	0.13	0.00	-23.01	7.396	5.09230	7.44218	0.0
9.6244	88.0124	-0.24	0.13	0.00	-23.01	7.396	5.09322	7.44353	0.0
9.6344	88.0324	-0.24	0.13	0.00	-23.01	7.396	5.09414	7.44487	4.0
9.6444	88.0524	-0.24	0.13	0.00	-23.01	7.396	5.09506	7.44622	0.0
9.6544	88.0724	-0.24	0.13	0.00	-23.01	7.396	5.09598	7.44756	2.0
9.6644	88.0924	-0.24	0.13	0.00	-23.01	7.396	5.09690	7.44891	0.0
9.6744	88.1124	-0.24	0.13	0.00	-23.01	7.396	5.09782	7.45025	2.0
9.6844	88.1324	-0.24	0.13	0.00	-23.01	7.396	5.09874	7.45159	2.0
9.6944	88.1524	-0.24	0.13	0.00	-23.01	7.396	5.09966	7.45294	4.0
9.7044	88.1724	-0.24	0.13	0.00	-23.01	7.396	5.10058	7.45428	0.0
9.7144	88.1924	-0.24	0.13	0.00	-23.01	7.396	5.10149	7.45562	2.0
9.7244	88.2124	-0.24	0.13	0.00	-23.01	7.396	5.10241	7.45697	0.0
9.7344	88.2324	-0.24	0.13	0.00	-23.01	7.396	5.10333	7.45831	0.0
9.7444	88.2524	-0.24	0.13	0.00	-23.01	7.396	5.10425	7.45965	2.0
9.7544	88.2724	-0.24	0.13	0.00	-23.01	7.396	5.10517	7.46099	0.0
9.7644	88.2924	-0.24	0.13	0.00	-23.01	7.396	5.10609	7.46234	4.0
9.7744	88.3124	-0.24	0.13	0.00	-23.01	7.396	5.10701	7.46368	0.0
9.7844	88.3324	-0.24	0.13	0.00	-23.01	7.396	5.10792	7.46502	4.0
9.7944	88.3524	-0.24	0.13	0.00	-23.01	7.396	5.10884	7.46636	2.0
9.8044	88.3724	-0.24	0.13	0.00	-23.01	7.396	5.10976	7.46770	2.0
9.8144	88.3924	-0.24	0.13	0.00	-23.01	7.396	5.11068	7.46904	2.0
9.8244	88.4124	-0.24	0.13	0.00	-23.01	7.396	5.11159	7.47038	0.0
9.8344	88.4324	-0.24	0.13	0.00	-23.01	7.396	5.11251	7.47172	0.0
9.8444	88.4524	-0.24	0.13	0.00	-23.01	7.396	5.11343	7.47306	0.0
9.8544	88.4724	-0.24	0.13	0.00	-23.01	7.396	5.11434	7.47440	2.0
9.8644	88.4924	-0.24	0.13	0.00	-23.01	7.396	5.11526	7.47574	0.0
9.8744	88.5124	-0.24	0.13	0.00	-23.01	7.396	5.11618	7.47708	4.0
9.8844	88.5324	-0.24	0.13	0.00	-23.01	7.396	5.11709	7.47842	0.0
9.8944	88.5524	-0.24	0.13	0.00	-23.01	7.396	5.11801	7.47976	2.0
9.9044	88.5724	-0.24	0.13	0.00	-23.01	7.396	5.11893	7.48110	4.0
9.9144	88.5924	-0.24	0.13	0.00	-23.01	7.396	5.11984	7.48244	0.0
9.9244	88.6124	-0.24	0.13	0.00	-23.01	7.396	5.12076	7.48378	0.0
9.9344	88.6324	-0.24	0.13	0.00	-23.01	7.396	5.12167	7.48511	0.0
9.9444	88.6524	-0.24	0.13	0.00	-23.01	7.396	5.12259	7.48645	6.0
9.9544	88.6724	-0.24	0.13	0.00	-23.01	7.396	5.12350	7.48779	2.0
9.9644	88.6924	-0.24	0.13	0.00	-23.01	7.396	5.12442	7.48913	0.0
9.9744	88.7124	-0.24	0.13	0.00	-23.01	7.396	5.12533	7.49046	2.0
9.9844	88.7324	-0.24	0.13	0.00	-23.01	7.396	5.12625	7.49180	0.0
9.9944	88.7524	-0.24	0.13	0.00	-23.01	7.396	5.12716	7.49314	0.0
10.0044	88.7724	-0.24	0.13	0.00	-23.01	7.396	5.12808	7.49447	4.0
10.0144	88.7924	-0.24	0.13	0.00	-23.01	7.396	5.12899	7.49581	2.0
10.0244	88.8124	-0.24	0.13	0.00	-23.01	7.396	5.12991	7.49715	2.0
10.0344	88.8324	-0.24	0.13	0.00	-23.01	7.396	5.13082	7.49848	0.0
10.0444	88.8524	-0.24	0.13	0.00	-23.01	7.396	5.13173	7.49982	2.0
10.0544	88.8724	-0.24	0.13	0.00	-23.01	7.396	5.13265	7.50115	2.0
10.0644	88.8924	-0.24	0.13	0.00	-23.01	7.396	5.13356	7.50249	0.0
10.0744	88.9124	-0.24	0.13	0.00	-23.01	7.396	5.13448	7.50382	0.0
10.0844	88.9324	-0.24	0.13	0.00	-23.01	7.396	5.13539	7.50516	4.0
10.0944	88.9524	-0.24	0.13	0.00	-23.01	7.396	5.13630	7.50649	0.0
10.1044	88.9724	-0.24	0.13	0.00	-23.01	7.396	5.13721	7.50783	2.0
10.1144	88.9924	-0.24	0.13	0.00	-23.01	7.396	5.13813	7.50916	0.0
10.1244	89.0124	-0.24	0.13	0.00	-23.01	7.396	5.13904	7.51049	6.0
10.1344	89.0324	-0.24	0.13	0.00	-23.01	7.396	5.13995	7.51183	0.0