File: Data/113xx/2.0deg-2.0deg-rsm-3h10mins_11355-annealed_224.dat
# filename: /home/lepecvd/lepecvd/11355/xray/2.0deg-2.0deg-rsm-3h10m_11355-E4_224.xrdml
# reflection: ('2', '2', '4')
# type: Area measurement
# x-axis: Omega_2Theta
# y-axis: Omega
#
# Omega	2Theta	Phi  	Chi   	X    	Y    	Z    	q_para	q_perp	Intensity
# [deg]	[deg] 	[deg]	[deg] 	[mm] 	[mm] 	[mm] 	[nm-1]	[nm-1]	[counts/s]
6.6828	84.9998	-0.70	0.35	0.00	15.50	7.376	5.13260	7.11205	0.0
6.6928	85.0198	-0.70	0.35	0.00	15.50	7.376	5.13358	7.11341	2.0
6.7028	85.0398	-0.70	0.35	0.00	15.50	7.376	5.13456	7.11476	0.0
6.7128	85.0598	-0.70	0.35	0.00	15.50	7.376	5.13553	7.11611	0.0
6.7228	85.0798	-0.70	0.35	0.00	15.50	7.376	5.13651	7.11747	0.0
6.7328	85.0998	-0.70	0.35	0.00	15.50	7.376	5.13749	7.11882	0.0
6.7428	85.1198	-0.70	0.35	0.00	15.50	7.376	5.13846	7.12017	0.0
6.7528	85.1398	-0.70	0.35	0.00	15.50	7.376	5.13944	7.12153	0.0
6.7628	85.1598	-0.70	0.35	0.00	15.50	7.376	5.14042	7.12288	0.0
6.7728	85.1798	-0.70	0.35	0.00	15.50	7.376	5.14139	7.12423	0.0
6.7828	85.1998	-0.70	0.35	0.00	15.50	7.376	5.14237	7.12559	0.0
6.7928	85.2198	-0.70	0.35	0.00	15.50	7.376	5.14334	7.12694	6.0
6.8028	85.2398	-0.70	0.35	0.00	15.50	7.376	5.14432	7.12829	0.0
6.8128	85.2598	-0.70	0.35	0.00	15.50	7.376	5.14530	7.12964	0.0
6.8228	85.2798	-0.70	0.35	0.00	15.50	7.376	5.14627	7.13099	4.0
6.8328	85.2998	-0.70	0.35	0.00	15.50	7.376	5.14725	7.13235	2.0
6.8428	85.3198	-0.70	0.35	0.00	15.50	7.376	5.14822	7.13370	0.0
6.8528	85.3398	-0.70	0.35	0.00	15.50	7.376	5.14920	7.13505	2.0
6.8628	85.3598	-0.70	0.35	0.00	15.50	7.376	5.15017	7.13640	0.0
6.8728	85.3798	-0.70	0.35	0.00	15.50	7.376	5.15115	7.13775	0.0
6.8828	85.3998	-0.70	0.35	0.00	15.50	7.376	5.15212	7.13910	4.0
6.8928	85.4198	-0.70	0.35	0.00	15.50	7.376	5.15310	7.14045	0.0
6.9028	85.4398	-0.70	0.35	0.00	15.50	7.376	5.15407	7.14180	2.0
6.9128	85.4598	-0.70	0.35	0.00	15.50	7.376	5.15504	7.14315	0.0
6.9228	85.4798	-0.70	0.35	0.00	15.50	7.376	5.15602	7.14450	2.0
6.9328	85.4998	-0.70	0.35	0.00	15.50	7.376	5.15699	7.14585	0.0
6.9428	85.5198	-0.70	0.35	0.00	15.50	7.376	5.15797	7.14720	0.0
6.9528	85.5398	-0.70	0.35	0.00	15.50	7.376	5.15894	7.14855	0.0
6.9628	85.5598	-0.70	0.35	0.00	15.50	7.376	5.15991	7.14990	2.0
6.9728	85.5798	-0.70	0.35	0.00	15.50	7.376	5.16088	7.15124	0.0
6.9828	85.5998	-0.70	0.35	0.00	15.50	7.376	5.16186	7.15259	0.0
6.9928	85.6198	-0.70	0.35	0.00	15.50	7.376	5.16283	7.15394	2.0
7.0028	85.6398	-0.70	0.35	0.00	15.50	7.376	5.16380	7.15529	0.0
7.0128	85.6598	-0.70	0.35	0.00	15.50	7.376	5.16478	7.15664	0.0
7.0228	85.6798	-0.70	0.35	0.00	15.50	7.376	5.16575	7.15798	0.0
7.0328	85.6998	-0.70	0.35	0.00	15.50	7.376	5.16672	7.15933	2.0
7.0428	85.7198	-0.70	0.35	0.00	15.50	7.376	5.16769	7.16068	0.0
7.0528	85.7398	-0.70	0.35	0.00	15.50	7.376	5.16866	7.16202	0.0
7.0628	85.7598	-0.70	0.35	0.00	15.50	7.376	5.16964	7.16337	4.0
7.0728	85.7798	-0.70	0.35	0.00	15.50	7.376	5.17061	7.16472	0.0
7.0828	85.7998	-0.70	0.35	0.00	15.50	7.376	5.17158	7.16606	0.0
7.0928	85.8198	-0.70	0.35	0.00	15.50	7.376	5.17255	7.16741	0.0
7.1028	85.8398	-0.70	0.35	0.00	15.50	7.376	5.17352	7.16875	0.0
7.1128	85.8598	-0.70	0.35	0.00	15.50	7.376	5.17449	7.17010	0.0
7.1228	85.8798	-0.70	0.35	0.00	15.50	7.376	5.17546	7.17144	0.0
7.1328	85.8998	-0.70	0.35	0.00	15.50	7.376	5.17643	7.17279	0.0
7.1428	85.9198	-0.70	0.35	0.00	15.50	7.376	5.17740	7.17413	0.0
7.1528	85.9398	-0.70	0.35	0.00	15.50	7.376	5.17837	7.17548	2.0
7.1628	85.9598	-0.70	0.35	0.00	15.50	7.376	5.17934	7.17682	2.0
7.1728	85.9798	-0.70	0.35	0.00	15.50	7.376	5.18031	7.17817	2.0
7.1828	85.9998	-0.70	0.35	0.00	15.50	7.376	5.18128	7.17951	2.0
7.1928	86.0198	-0.70	0.35	0.00	15.50	7.376	5.18225	7.18085	0.0
7.2028	86.0398	-0.70	0.35	0.00	15.50	7.376	5.18322	7.18220	0.0
7.2128	86.0598	-0.70	0.35	0.00	15.50	7.376	5.18419	7.18354	0.0
7.2228	86.0798	-0.70	0.35	0.00	15.50	7.376	5.18516	7.18488	2.0
7.2328	86.0998	-0.70	0.35	0.00	15.50	7.376	5.18613	7.18623	0.0
7.2428	86.1198	-0.70	0.35	0.00	15.50	7.376	5.18710	7.18757	2.0
7.2528	86.1398	-0.70	0.35	0.00	15.50	7.376	5.18807	7.18891	2.0
7.2628	86.1598	-0.70	0.35	0.00	15.50	7.376	5.18904	7.19025	0.0
7.2728	86.1798	-0.70	0.35	0.00	15.50	7.376	5.19001	7.19160	2.0
7.2828	86.1998	-0.70	0.35	0.00	15.50	7.376	5.19097	7.19294	0.0
7.2928	86.2198	-0.70	0.35	0.00	15.50	7.376	5.19194	7.19428	2.0
7.3028	86.2398	-0.70	0.35	0.00	15.50	7.376	5.19291	7.19562	4.0
7.3128	86.2598	-0.70	0.35	0.00	15.50	7.376	5.19388	7.19696	4.0
7.3228	86.2798	-0.70	0.35	0.00	15.50	7.376	5.19485	7.19830	0.0
7.3328	86.2998	-0.70	0.35	0.00	15.50	7.376	5.19581	7.19964	0.0
7.3428	86.3198	-0.70	0.35	0.00	15.50	7.376	5.19678	7.20098	0.0
7.3528	86.3398	-0.70	0.35	0.00	15.50	7.376	5.19775	7.20232	2.0
7.3628	86.3598	-0.70	0.35	0.00	15.50	7.376	5.19871	7.20366	2.0
7.3728	86.3798	-0.70	0.35	0.00	15.50	7.376	5.19968	7.20500	0.0
7.3828	86.3998	-0.70	0.35	0.00	15.50	7.376	5.20065	7.20634	0.0
7.3928	86.4198	-0.70	0.35	0.00	15.50	7.376	5.20161	7.20768	0.0
7.4028	86.4398	-0.70	0.35	0.00	15.50	7.376	5.20258	7.20902	2.0
7.4128	86.4598	-0.70	0.35	0.00	15.50	7.376	5.20355	7.21036	0.0
7.4228	86.4798	-0.70	0.35	0.00	15.50	7.376	5.20451	7.21170	4.0
7.4328	86.4998	-0.70	0.35	0.00	15.50	7.376	5.20548	7.21304	0.0
7.4428	86.5198	-0.70	0.35	0.00	15.50	7.376	5.20644	7.21437	2.0
7.4528	86.5398	-0.70	0.35	0.00	15.50	7.376	5.20741	7.21571	4.0
7.4628	86.5598	-0.70	0.35	0.00	15.50	7.376	5.20838	7.21705	0.0
7.4728	86.5798	-0.70	0.35	0.00	15.50	7.376	5.20934	7.21839	2.0
7.4828	86.5998	-0.70	0.35	0.00	15.50	7.376	5.21031	7.21972	0.0
7.4928	86.6198	-0.70	0.35	0.00	15.50	7.376	5.21127	7.22106	0.0
7.5028	86.6398	-0.70	0.35	0.00	15.50	7.376	5.21224	7.22240	2.0
7.5128	86.6598	-0.70	0.35	0.00	15.50	7.376	5.21320	7.22374	0.0
7.5228	86.6798	-0.70	0.35	0.00	15.50	7.376	5.21416	7.22507	2.0
7.5328	86.6998	-0.70	0.35	0.00	15.50	7.376	5.21513	7.22641	0.0
7.5428	86.7198	-0.70	0.35	0.00	15.50	7.376	5.21609	7.22774	2.0
7.5528	86.7398	-0.70	0.35	0.00	15.50	7.376	5.21706	7.22908	0.0
7.5628	86.7598	-0.70	0.35	0.00	15.50	7.376	5.21802	7.23041	0.0
7.5728	86.7798	-0.70	0.35	0.00	15.50	7.376	5.21898	7.23175	0.0
7.5828	86.7998	-0.70	0.35	0.00	15.50	7.376	5.21995	7.23309	0.0
7.5928	86.8198	-0.70	0.35	0.00	15.50	7.376	5.22091	7.23442	0.0
7.6028	86.8398	-0.70	0.35	0.00	15.50	7.376	5.22187	7.23575	2.0
7.6128	86.8598	-0.70	0.35	0.00	15.50	7.376	5.22284	7.23709	0.0
7.6228	86.8798	-0.70	0.35	0.00	15.50	7.376	5.22380	7.23842	6.0
7.6328	86.8998	-0.70	0.35	0.00	15.50	7.376	5.22476	7.23976	0.0
7.6428	86.9198	-0.70	0.35	0.00	15.50	7.376	5.22573	7.24109	0.0
7.6528	86.9398	-0.70	0.35	0.00	15.50	7.376	5.22669	7.24242	2.0
7.6628	86.9598	-0.70	0.35	0.00	15.50	7.376	5.22765	7.24376	0.0
7.6728	86.9798	-0.70	0.35	0.00	15.50	7.376	5.22861	7.24509	0.0
7.6828	86.9998	-0.70	0.35	0.00	15.50	7.376	5.22957	7.24642	0.0
7.6928	87.0198	-0.70	0.35	0.00	15.50	7.376	5.23054	7.24776	2.0
7.7028	87.0398	-0.70	0.35	0.00	15.50	7.376	5.23150	7.24909	0.0
7.7128	87.0598	-0.70	0.35	0.00	15.50	7.376	5.23246	7.25042	2.0
7.7228	87.0798	-0.70	0.35	0.00	15.50	7.376	5.23342	7.25175	0.0
7.7328	87.0998	-0.70	0.35	0.00	15.50	7.376	5.23438	7.25308	4.0
7.7428	87.1198	-0.70	0.35	0.00	15.50	7.376	5.23534	7.25442	0.0
7.7528	87.1398	-0.70	0.35	0.00	15.50	7.376	5.23630	7.25575	0.0
7.7628	87.1598	-0.70	0.35	0.00	15.50	7.376	5.23726	7.25708	0.0
7.7728	87.1798	-0.70	0.35	0.00	15.50	7.376	5.23822	7.25841	0.0
7.7828	87.1998	-0.70	0.35	0.00	15.50	7.376	5.23918	7.25974	2.0
7.7928	87.2198	-0.70	0.35	0.00	15.50	7.376	5.24014	7.26107	2.0
7.8028	87.2398	-0.70	0.35	0.00	15.50	7.376	5.24110	7.26240	2.0
7.8128	87.2598	-0.70	0.35	0.00	15.50	7.376	5.24206	7.26373	0.0
7.8228	87.2798	-0.70	0.35	0.00	15.50	7.376	5.24302	7.26506	4.0
7.8328	87.2998	-0.70	0.35	0.00	15.50	7.376	5.24398	7.26639	2.0
7.8428	87.3198	-0.70	0.35	0.00	15.50	7.376	5.24494	7.26772	0.0
7.8528	87.3398	-0.70	0.35	0.00	15.50	7.376	5.24590	7.26905	2.0
7.8628	87.3598	-0.70	0.35	0.00	15.50	7.376	5.24686	7.27038	0.0
7.8728	87.3798	-0.70	0.35	0.00	15.50	7.376	5.24782	7.27171	0.0
7.8828	87.3998	-0.70	0.35	0.00	15.50	7.376	5.24878	7.27303	2.0
7.8928	87.4198	-0.70	0.35	0.00	15.50	7.376	5.24974	7.27436	2.0
7.9028	87.4398	-0.70	0.35	0.00	15.50	7.376	5.25070	7.27569	0.0
7.9128	87.4598	-0.70	0.35	0.00	15.50	7.376	5.25165	7.27702	2.0
7.9228	87.4798	-0.70	0.35	0.00	15.50	7.376	5.25261	7.27835	0.0
7.9328	87.4998	-0.70	0.35	0.00	15.50	7.376	5.25357	7.27967	4.0
7.9428	87.5198	-0.70	0.35	0.00	15.50	7.376	5.25453	7.28100	0.0
7.9528	87.5398	-0.70	0.35	0.00	15.50	7.376	5.25549	7.28233	2.0
7.9628	87.5598	-0.70	0.35	0.00	15.50	7.376	5.25644	7.28365	0.0
7.9728	87.5798	-0.70	0.35	0.00	15.50	7.376	5.25740	7.28498	4.0
7.9828	87.5998	-0.70	0.35	0.00	15.50	7.376	5.25836	7.28631	0.0
7.9928	87.6198	-0.70	0.35	0.00	15.50	7.376	5.25931	7.28763	0.0
8.0028	87.6398	-0.70	0.35	0.00	15.50	7.376	5.26027	7.28896	0.0
8.0128	87.6598	-0.70	0.35	0.00	15.50	7.376	5.26123	7.29028	4.0
8.0228	87.6798	-0.70	0.35	0.00	15.50	7.376	5.26218	7.29161	2.0
8.0328	87.6998	-0.70	0.35	0.00	15.50	7.376	5.26314	7.29294	0.0
8.0428	87.7198	-0.70	0.35	0.00	15.50	7.376	5.26410	7.29426	2.0
8.0528	87.7398	-0.70	0.35	0.00	15.50	7.376	5.26505	7.29558	2.0
8.0628	87.7598	-0.70	0.35	0.00	15.50	7.376	5.26601	7.29691	0.0
8.0728	87.7798	-0.70	0.35	0.00	15.50	7.376	5.26696	7.29823	0.0
8.0828	87.7998	-0.70	0.35	0.00	15.50	7.376	5.26792	7.29956	0.0
8.0928	87.8198	-0.70	0.35	0.00	15.50	7.376	5.26887	7.30088	2.0
8.1028	87.8398	-0.70	0.35	0.00	15.50	7.376	5.26983	7.30220	2.0
8.1128	87.8598	-0.70	0.35	0.00	15.50	7.376	5.27078	7.30353	0.0
8.1228	87.8798	-0.70	0.35	0.00	15.50	7.376	5.27174	7.30485	2.0
8.1328	87.8998	-0.70	0.35	0.00	15.50	7.376	5.27269	7.30617	0.0
8.1428	87.9198	-0.70	0.35	0.00	15.50	7.376	5.27365	7.30750	2.0
8.1528	87.9398	-0.70	0.35	0.00	15.50	7.376	5.27460	7.30882	0.0
8.1628	87.9598	-0.70	0.35	0.00	15.50	7.376	5.27556	7.31014	2.0
8.1728	87.9798	-0.70	0.35	0.00	15.50	7.376	5.27651	7.31146	2.0
8.1828	87.9998	-0.70	0.35	0.00	15.50	7.376	5.27747	7.31279	4.0
8.1928	88.0198	-0.70	0.35	0.00	15.50	7.376	5.27842	7.31411	2.0
8.2028	88.0398	-0.70	0.35	0.00	15.50	7.376	5.27937	7.31543	0.0
8.2128	88.0598	-0.70	0.35	0.00	15.50	7.376	5.28033	7.31675	0.0
8.2228	88.0798	-0.70	0.35	0.00	15.50	7.376	5.28128	7.31807	2.0
8.2328	88.0998	-0.70	0.35	0.00	15.50	7.376	5.28223	7.31939	0.0
8.2428	88.1198	-0.70	0.35	0.00	15.50	7.376	5.28319	7.32071	0.0
8.2528	88.1398	-0.70	0.35	0.00	15.50	7.376	5.28414	7.32203	2.0
8.2628	88.1598	-0.70	0.35	0.00	15.50	7.376	5.28509	7.32335	6.0
8.2728	88.1798	-0.70	0.35	0.00	15.50	7.376	5.28604	7.32467	0.0
8.2828	88.1998	-0.70	0.35	0.00	15.50	7.376	5.28700	7.32599	4.0
8.2928	88.2198	-0.70	0.35	0.00	15.50	7.376	5.28795	7.32731	2.0
8.3028	88.2398	-0.70	0.35	0.00	15.50	7.376	5.28890	7.32863	0.0
8.3128	88.2598	-0.70	0.35	0.00	15.50	7.376	5.28985	7.32995	0.0
8.3228	88.2798	-0.70	0.35	0.00	15.50	7.376	5.29080	7.33127	0.0
8.3328	88.2998	-0.70	0.35	0.00	15.50	7.376	5.29175	7.33259	2.0
8.3428	88.3198	-0.70	0.35	0.00	15.50	7.376	5.29271	7.33390	2.0
8.3528	88.3398	-0.70	0.35	0.00	15.50	7.376	5.29366	7.33522	2.0
8.3628	88.3598	-0.70	0.35	0.00	15.50	7.376	5.29461	7.33654	2.0
8.3728	88.3798	-0.70	0.35	0.00	15.50	7.376	5.29556	7.33786	0.0
8.3828	88.3998	-0.70	0.35	0.00	15.50	7.376	5.29651	7.33917	0.0
8.3928	88.4198	-0.70	0.35	0.00	15.50	7.376	5.29746	7.34049	0.0
8.4028	88.4398	-0.70	0.35	0.00	15.50	7.376	5.29841	7.34181	2.0
8.4128	88.4598	-0.70	0.35	0.00	15.50	7.376	5.29936	7.34312	0.0
8.4228	88.4798	-0.70	0.35	0.00	15.50	7.376	5.30031	7.34444	2.0
8.4328	88.4998	-0.70	0.35	0.00	15.50	7.376	5.30126	7.34576	2.0
8.4428	88.5198	-0.70	0.35	0.00	15.50	7.376	5.30221	7.34707	0.0
8.4528	88.5398	-0.70	0.35	0.00	15.50	7.376	5.30316	7.34839	4.0
8.4628	88.5598	-0.70	0.35	0.00	15.50	7.376	5.30411	7.34970	0.0
8.4728	88.5798	-0.70	0.35	0.00	15.50	7.376	5.30506	7.35102	2.0
8.4828	88.5998	-0.70	0.35	0.00	15.50	7.376	5.30601	7.35234	2.0
8.4928	88.6198	-0.70	0.35	0.00	15.50	7.376	5.30696	7.35365	0.0
8.5028	88.6398	-0.70	0.35	0.00	15.50	7.376	5.30791	7.35496	0.0
8.5128	88.6598	-0.70	0.35	0.00	15.50	7.376	5.30885	7.35628	2.0
8.5228	88.6798	-0.70	0.35	0.00	15.50	7.376	5.30980	7.35759	2.0
8.5328	88.6998	-0.70	0.35	0.00	15.50	7.376	5.31075	7.35891	0.0
8.5428	88.7198	-0.70	0.35	0.00	15.50	7.376	5.31170	7.36022	2.0
8.5528	88.7398	-0.70	0.35	0.00	15.50	7.376	5.31265	7.36153	0.0
8.5628	88.7598	-0.70	0.35	0.00	15.50	7.376	5.31359	7.36285	2.0
8.5728	88.7798	-0.70	0.35	0.00	15.50	7.376	5.31454	7.36416	0.0
8.5828	88.7998	-0.70	0.35	0.00	15.50	7.376	5.31549	7.36547	0.0
8.5928	88.8198	-0.70	0.35	0.00	15.50	7.376	5.31644	7.36679	4.0
8.6028	88.8398	-0.70	0.35	0.00	15.50	7.376	5.31738	7.36810	0.0
8.6128	88.8598	-0.70	0.35	0.00	15.50	7.376	5.31833	7.36941	0.0
8.6228	88.8798	-0.70	0.35	0.00	15.50	7.376	5.31928	7.37072	0.0
8.6328	88.8998	-0.70	0.35	0.00	15.50	7.376	5.32022	7.37203	0.0
8.6428	88.9198	-0.70	0.35	0.00	15.50	7.376	5.32117	7.37335	0.0
8.6528	88.9398	-0.70	0.35	0.00	15.50	7.376	5.32212	7.37466	4.0
8.6628	88.9598	-0.70	0.35	0.00	15.50	7.376	5.32306	7.37597	0.0

6.7028	84.9998	-0.70	0.35	0.00	15.50	7.376	5.13012	7.11384	2.0
6.7128	85.0198	-0.70	0.35	0.00	15.50	7.376	5.13109	7.11520	0.0
6.7228	85.0398	-0.70	0.35	0.00	15.50	7.376	5.13207	7.11655	0.0
6.7328	85.0598	-0.70	0.35	0.00	15.50	7.376	5.13305	7.11791	0.0
6.7428	85.0798	-0.70	0.35	0.00	15.50	7.376	5.13402	7.11926	2.0
6.7528	85.0998	-0.70	0.35	0.00	15.50	7.376	5.13500	7.12061	0.0
6.7628	85.1198	-0.70	0.35	0.00	15.50	7.376	5.13598	7.12197	2.0
6.7728	85.1398	-0.70	0.35	0.00	15.50	7.376	5.13695	7.12332	0.0
6.7828	85.1598	-0.70	0.35	0.00	15.50	7.376	5.13793	7.12467	0.0
6.7928	85.1798	-0.70	0.35	0.00	15.50	7.376	5.13891	7.12603	2.0
6.8028	85.1998	-0.70	0.35	0.00	15.50	7.376	5.13988	7.12738	0.0
6.8128	85.2198	-0.70	0.35	0.00	15.50	7.376	5.14086	7.12873	2.0
6.8228	85.2398	-0.70	0.35	0.00	15.50	7.376	5.14183	7.13009	0.0
6.8328	85.2598	-0.70	0.35	0.00	15.50	7.376	5.14281	7.13144	0.0
6.8428	85.2798	-0.70	0.35	0.00	15.50	7.376	5.14378	7.13279	0.0
6.8528	85.2998	-0.70	0.35	0.00	15.50	7.376	5.14476	7.13414	0.0
6.8628	85.3198	-0.70	0.35	0.00	15.50	7.376	5.14573	7.13549	0.0
6.8728	85.3398	-0.70	0.35	0.00	15.50	7.376	5.14671	7.13685	0.0
6.8828	85.3598	-0.70	0.35	0.00	15.50	7.376	5.14768	7.13820	0.0
6.8928	85.3798	-0.70	0.35	0.00	15.50	7.376	5.14865	7.13955	0.0
6.9028	85.3998	-0.70	0.35	0.00	15.50	7.376	5.14963	7.14090	2.0
6.9128	85.4198	-0.70	0.35	0.00	15.50	7.376	5.15060	7.14225	0.0
6.9228	85.4398	-0.70	0.35	0.00	15.50	7.376	5.15158	7.14360	0.0
6.9328	85.4598	-0.70	0.35	0.00	15.50	7.376	5.15255	7.14495	0.0
6.9428	85.4798	-0.70	0.35	0.00	15.50	7.376	5.15352	7.14630	2.0
6.9528	85.4998	-0.70	0.35	0.00	15.50	7.376	5.15450	7.14765	0.0
6.9628	85.5198	-0.70	0.35	0.00	15.50	7.376	5.15547	7.14900	0.0
6.9728	85.5398	-0.70	0.35	0.00	15.50	7.376	5.15644	7.15035	4.0
6.9828	85.5598	-0.70	0.35	0.00	15.50	7.376	5.15742	7.15170	0.0
6.9928	85.5798	-0.70	0.35	0.00	15.50	7.376	5.15839	7.15304	0.0
7.0028	85.5998	-0.70	0.35	0.00	15.50	7.376	5.15936	7.15439	0.0
7.0128	85.6198	-0.70	0.35	0.00	15.50	7.376	5.16033	7.15574	0.0
7.0228	85.6398	-0.70	0.35	0.00	15.50	7.376	5.16131	7.15709	2.0
7.0328	85.6598	-0.70	0.35	0.00	15.50	7.376	5.16228	7.15844	0.0
7.0428	85.6798	-0.70	0.35	0.00	15.50	7.376	5.16325	7.15979	4.0
7.0528	85.6998	-0.70	0.35	0.00	15.50	7.376	5.16422	7.16113	2.0
7.0628	85.7198	-0.70	0.35	0.00	15.50	7.376	5.16519	7.16248	2.0
7.0728	85.7398	-0.70	0.35	0.00	15.50	7.376	5.16616	7.16383	2.0
7.0828	85.7598	-0.70	0.35	0.00	15.50	7.376	5.16714	7.16517	2.0
7.0928	85.7798	-0.70	0.35	0.00	15.50	7.376	5.16811	7.16652	2.0
7.1028	85.7998	-0.70	0.35	0.00	15.50	7.376	5.16908	7.16787	0.0
7.1128	85.8198	-0.70	0.35	0.00	15.50	7.376	5.17005	7.16921	2.0
7.1228	85.8398	-0.70	0.35	0.00	15.50	7.376	5.17102	7.17056	0.0
7.1328	85.8598	-0.70	0.35	0.00	15.50	7.376	5.17199	7.17190	2.0
7.1428	85.8798	-0.70	0.35	0.00	15.50	7.376	5.17296	7.17325	0.0
7.1528	85.8998	-0.70	0.35	0.00	15.50	7.376	5.17393	7.17460	0.0
7.1628	85.9198	-0.70	0.35	0.00	15.50	7.376	5.17490	7.17594	2.0
7.1728	85.9398	-0.70	0.35	0.00	15.50	7.376	5.17587	7.17729	0.0
7.1828	85.9598	-0.70	0.35	0.00	15.50	7.376	5.17684	7.17863	0.0
7.1928	85.9798	-0.70	0.35	0.00	15.50	7.376	5.17781	7.17997	0.0
7.2028	85.9998	-0.70	0.35	0.00	15.50	7.376	5.17878	7.18132	0.0
7.2128	86.0198	-0.70	0.35	0.00	15.50	7.376	5.17975	7.18266	2.0
7.2228	86.0398	-0.70	0.35	0.00	15.50	7.376	5.18072	7.18401	2.0
7.2328	86.0598	-0.70	0.35	0.00	15.50	7.376	5.18169	7.18535	4.0
7.2428	86.0798	-0.70	0.35	0.00	15.50	7.376	5.18265	7.18669	0.0
7.2528	86.0998	-0.70	0.35	0.00	15.50	7.376	5.18362	7.18804	2.0
7.2628	86.1198	-0.70	0.35	0.00	15.50	7.376	5.18459	7.18938	2.0
7.2728	86.1398	-0.70	0.35	0.00	15.50	7.376	5.18556	7.19072	2.0
7.2828	86.1598	-0.70	0.35	0.00	15.50	7.376	5.18653	7.19206	2.0
7.2928	86.1798	-0.70	0.35	0.00	15.50	7.376	5.18750	7.19341	2.0
7.3028	86.1998	-0.70	0.35	0.00	15.50	7.376	5.18846	7.19475	0.0
7.3128	86.2198	-0.70	0.35	0.00	15.50	7.376	5.18943	7.19609	0.0
7.3228	86.2398	-0.70	0.35	0.00	15.50	7.376	5.19040	7.19743	0.0
7.3328	86.2598	-0.70	0.35	0.00	15.50	7.376	5.19137	7.19877	2.0
7.3428	86.2798	-0.70	0.35	0.00	15.50	7.376	5.19233	7.20011	0.0
7.3528	86.2998	-0.70	0.35	0.00	15.50	7.376	5.19330	7.20146	2.0
7.3628	86.3198	-0.70	0.35	0.00	15.50	7.376	5.19427	7.20280	0.0
7.3728	86.3398	-0.70	0.35	0.00	15.50	7.376	5.19523	7.20414	0.0
7.3828	86.3598	-0.70	0.35	0.00	15.50	7.376	5.19620	7.20548	2.0
7.3928	86.3798	-0.70	0.35	0.00	15.50	7.376	5.19717	7.20682	0.0
7.4028	86.3998	-0.70	0.35	0.00	15.50	7.376	5.19813	7.20816	2.0
7.4128	86.4198	-0.70	0.35	0.00	15.50	7.376	5.19910	7.20950	2.0
7.4228	86.4398	-0.70	0.35	0.00	15.50	7.376	5.20006	7.21084	4.0
7.4328	86.4598	-0.70	0.35	0.00	15.50	7.376	5.20103	7.21217	2.0
7.4428	86.4798	-0.70	0.35	0.00	15.50	7.376	5.20200	7.21351	2.0
7.4528	86.4998	-0.70	0.35	0.00	15.50	7.376	5.20296	7.21485	0.0
7.4628	86.5198	-0.70	0.35	0.00	15.50	7.376	5.20393	7.21619	0.0
7.4728	86.5398	-0.70	0.35	0.00	15.50	7.376	5.20489	7.21753	0.0
7.4828	86.5598	-0.70	0.35	0.00	15.50	7.376	5.20586	7.21887	0.0
7.4928	86.5798	-0.70	0.35	0.00	15.50	7.376	5.20682	7.22021	2.0
7.5028	86.5998	-0.70	0.35	0.00	15.50	7.376	5.20779	7.22154	2.0
7.5128	86.6198	-0.70	0.35	0.00	15.50	7.376	5.20875	7.22288	0.0
7.5228	86.6398	-0.70	0.35	0.00	15.50	7.376	5.20971	7.22422	0.0
7.5328	86.6598	-0.70	0.35	0.00	15.50	7.376	5.21068	7.22555	0.0
7.5428	86.6798	-0.70	0.35	0.00	15.50	7.376	5.21164	7.22689	2.0
7.5528	86.6998	-0.70	0.35	0.00	15.50	7.376	5.21261	7.22823	0.0
7.5628	86.7198	-0.70	0.35	0.00	15.50	7.376	5.21357	7.22956	4.0
7.5728	86.7398	-0.70	0.35	0.00	15.50	7.376	5.21453	7.23090	0.0
7.5828	86.7598	-0.70	0.35	0.00	15.50	7.376	5.21550	7.23224	0.0
7.5928	86.7798	-0.70	0.35	0.00	15.50	7.376	5.21646	7.23357	2.0
7.6028	86.7998	-0.70	0.35	0.00	15.50	7.376	5.21742	7.23491	2.0
7.6128	86.8198	-0.70	0.35	0.00	15.50	7.376	5.21839	7.23624	0.0
7.6228	86.8398	-0.70	0.35	0.00	15.50	7.376	5.21935	7.23758	2.0
7.6328	86.8598	-0.70	0.35	0.00	15.50	7.376	5.22031	7.23891	2.0
7.6428	86.8798	-0.70	0.35	0.00	15.50	7.376	5.22127	7.24025	0.0
7.6528	86.8998	-0.70	0.35	0.00	15.50	7.376	5.22224	7.24158	0.0
7.6628	86.9198	-0.70	0.35	0.00	15.50	7.376	5.22320	7.24291	0.0
7.6728	86.9398	-0.70	0.35	0.00	15.50	7.376	5.22416	7.24425	0.0
7.6828	86.9598	-0.70	0.35	0.00	15.50	7.376	5.22512	7.24558	0.0
7.6928	86.9798	-0.70	0.35	0.00	15.50	7.376	5.22608	7.24692	0.0
7.7028	86.9998	-0.70	0.35	0.00	15.50	7.376	5.22704	7.24825	2.0
7.7128	87.0198	-0.70	0.35	0.00	15.50	7.376	5.22801	7.24958	0.0
7.7228	87.0398	-0.70	0.35	0.00	15.50	7.376	5.22897	7.25091	0.0
7.7328	87.0598	-0.70	0.35	0.00	15.50	7.376	5.22993	7.25225	2.0
7.7428	87.0798	-0.70	0.35	0.00	15.50	7.376	5.23089	7.25358	2.0
7.7528	87.0998	-0.70	0.35	0.00	15.50	7.376	5.23185	7.25491	0.0
7.7628	87.1198	-0.70	0.35	0.00	15.50	7.376	5.23281	7.25624	0.0
7.7728	87.1398	-0.70	0.35	0.00	15.50	7.376	5.23377	7.25758	2.0
7.7828	87.1598	-0.70	0.35	0.00	15.50	7.376	5.23473	7.25891	0.0
7.7928	87.1798	-0.70	0.35	0.00	15.50	7.376	5.23569	7.26024	2.0
7.8028	87.1998	-0.70	0.35	0.00	15.50	7.376	5.23665	7.26157	0.0
7.8128	87.2198	-0.70	0.35	0.00	15.50	7.376	5.23761	7.26290	0.0
7.8228	87.2398	-0.70	0.35	0.00	15.50	7.376	5.23857	7.26423	0.0
7.8328	87.2598	-0.70	0.35	0.00	15.50	7.376	5.23953	7.26556	0.0
7.8428	87.2798	-0.70	0.35	0.00	15.50	7.376	5.24049	7.26689	0.0
7.8528	87.2998	-0.70	0.35	0.00	15.50	7.376	5.24145	7.26822	0.0
7.8628	87.3198	-0.70	0.35	0.00	15.50	7.376	5.24241	7.26955	0.0
7.8728	87.3398	-0.70	0.35	0.00	15.50	7.376	5.24336	7.27088	2.0
7.8828	87.3598	-0.70	0.35	0.00	15.50	7.376	5.24432	7.27221	0.0
7.8928	87.3798	-0.70	0.35	0.00	15.50	7.376	5.24528	7.27354	2.0
7.9028	87.3998	-0.70	0.35	0.00	15.50	7.376	5.24624	7.27487	0.0
7.9128	87.4198	-0.70	0.35	0.00	15.50	7.376	5.24720	7.27620	2.0
7.9228	87.4398	-0.70	0.35	0.00	15.50	7.376	5.24816	7.27752	6.0
7.9328	87.4598	-0.70	0.35	0.00	15.50	7.376	5.24911	7.27885	4.0
7.9428	87.4798	-0.70	0.35	0.00	15.50	7.376	5.25007	7.28018	0.0
7.9528	87.4998	-0.70	0.35	0.00	15.50	7.376	5.25103	7.28151	2.0
7.9628	87.5198	-0.70	0.35	0.00	15.50	7.376	5.25199	7.28283	2.0
7.9728	87.5398	-0.70	0.35	0.00	15.50	7.376	5.25294	7.28416	4.0
7.9828	87.5598	-0.70	0.35	0.00	15.50	7.376	5.25390	7.28549	0.0
7.9928	87.5798	-0.70	0.35	0.00	15.50	7.376	5.25486	7.28682	6.0
8.0028	87.5998	-0.70	0.35	0.00	15.50	7.376	5.25581	7.28814	0.0
8.0128	87.6198	-0.70	0.35	0.00	15.50	7.376	5.25677	7.28947	0.0
8.0228	87.6398	-0.70	0.35	0.00	15.50	7.376	5.25773	7.29079	2.0
8.0328	87.6598	-0.70	0.35	0.00	15.50	7.376	5.25868	7.29212	0.0
8.0428	87.6798	-0.70	0.35	0.00	15.50	7.376	5.25964	7.29345	2.0
8.0528	87.6998	-0.70	0.35	0.00	15.50	7.376	5.26059	7.29477	2.0
8.0628	87.7198	-0.70	0.35	0.00	15.50	7.376	5.26155	7.29610	2.0
8.0728	87.7398	-0.70	0.35	0.00	15.50	7.376	5.26251	7.29742	2.0
8.0828	87.7598	-0.70	0.35	0.00	15.50	7.376	5.26346	7.29875	2.0
8.0928	87.7798	-0.70	0.35	0.00	15.50	7.376	5.26442	7.30007	4.0
8.1028	87.7998	-0.70	0.35	0.00	15.50	7.376	5.26537	7.30140	2.0
8.1128	87.8198	-0.70	0.35	0.00	15.50	7.376	5.26633	7.30272	0.0
8.1228	87.8398	-0.70	0.35	0.00	15.50	7.376	5.26728	7.30404	0.0
8.1328	87.8598	-0.70	0.35	0.00	15.50	7.376	5.26824	7.30537	2.0
8.1428	87.8798	-0.70	0.35	0.00	15.50	7.376	5.26919	7.30669	0.0
8.1528	87.8998	-0.70	0.35	0.00	15.50	7.376	5.27014	7.30801	4.0
8.1628	87.9198	-0.70	0.35	0.00	15.50	7.376	5.27110	7.30934	0.0
8.1728	87.9398	-0.70	0.35	0.00	15.50	7.376	5.27205	7.31066	0.0
8.1828	87.9598	-0.70	0.35	0.00	15.50	7.376	5.27301	7.31198	4.0
8.1928	87.9798	-0.70	0.35	0.00	15.50	7.376	5.27396	7.31330	0.0
8.2028	87.9998	-0.70	0.35	0.00	15.50	7.376	5.27491	7.31463	6.0
8.2128	88.0198	-0.70	0.35	0.00	15.50	7.376	5.27587	7.31595	2.0
8.2228	88.0398	-0.70	0.35	0.00	15.50	7.376	5.27682	7.31727	0.0
8.2328	88.0598	-0.70	0.35	0.00	15.50	7.376	5.27777	7.31859	0.0
8.2428	88.0798	-0.70	0.35	0.00	15.50	7.376	5.27872	7.31991	2.0
8.2528	88.0998	-0.70	0.35	0.00	15.50	7.376	5.27968	7.32123	0.0
8.2628	88.1198	-0.70	0.35	0.00	15.50	7.376	5.28063	7.32256	0.0
8.2728	88.1398	-0.70	0.35	0.00	15.50	7.376	5.28158	7.32388	0.0
8.2828	88.1598	-0.70	0.35	0.00	15.50	7.376	5.28253	7.32520	0.0
8.2928	88.1798	-0.70	0.35	0.00	15.50	7.376	5.28349	7.32652	2.0
8.3028	88.1998	-0.70	0.35	0.00	15.50	7.376	5.28444	7.32784	2.0
8.3128	88.2198	-0.70	0.35	0.00	15.50	7.376	5.28539	7.32916	0.0
8.3228	88.2398	-0.70	0.35	0.00	15.50	7.376	5.28634	7.33048	2.0
8.3328	88.2598	-0.70	0.35	0.00	15.50	7.376	5.28729	7.33179	0.0
8.3428	88.2798	-0.70	0.35	0.00	15.50	7.376	5.28824	7.33311	0.0
8.3528	88.2998	-0.70	0.35	0.00	15.50	7.376	5.28919	7.33443	2.0
8.3628	88.3198	-0.70	0.35	0.00	15.50	7.376	5.29015	7.33575	2.0
8.3728	88.3398	-0.70	0.35	0.00	15.50	7.376	5.29110	7.33707	2.0
8.3828	88.3598	-0.70	0.35	0.00	15.50	7.376	5.29205	7.33839	0.0
8.3928	88.3798	-0.70	0.35	0.00	15.50	7.376	5.29300	7.33970	0.0
8.4028	88.3998	-0.70	0.35	0.00	15.50	7.376	5.29395	7.34102	4.0
8.4128	88.4198	-0.70	0.35	0.00	15.50	7.376	5.29490	7.34234	0.0
8.4228	88.4398	-0.70	0.35	0.00	15.50	7.376	5.29585	7.34366	0.0
8.4328	88.4598	-0.70	0.35	0.00	15.50	7.376	5.29680	7.34497	2.0
8.4428	88.4798	-0.70	0.35	0.00	15.50	7.376	5.29775	7.34629	2.0
8.4528	88.4998	-0.70	0.35	0.00	15.50	7.376	5.29870	7.34761	0.0
8.4628	88.5198	-0.70	0.35	0.00	15.50	7.376	5.29965	7.34892	0.0
8.4728	88.5398	-0.70	0.35	0.00	15.50	7.376	5.30059	7.35024	0.0
8.4828	88.5598	-0.70	0.35	0.00	15.50	7.376	5.30154	7.35156	0.0
8.4928	88.5798	-0.70	0.35	0.00	15.50	7.376	5.30249	7.35287	2.0
8.5028	88.5998	-0.70	0.35	0.00	15.50	7.376	5.30344	7.35419	4.0
8.5128	88.6198	-0.70	0.35	0.00	15.50	7.376	5.30439	7.35550	2.0
8.5228	88.6398	-0.70	0.35	0.00	15.50	7.376	5.30534	7.35682	0.0
8.5328	88.6598	-0.70	0.35	0.00	15.50	7.376	5.30629	7.35813	0.0
8.5428	88.6798	-0.70	0.35	0.00	15.50	7.376	5.30723	7.35945	0.0
8.5528	88.6998	-0.70	0.35	0.00	15.50	7.376	5.30818	7.36076	0.0
8.5628	88.7198	-0.70	0.35	0.00	15.50	7.376	5.30913	7.36207	0.0
8.5728	88.7398	-0.70	0.35	0.00	15.50	7.376	5.31008	7.36339	2.0
8.5828	88.7598	-0.70	0.35	0.00	15.50	7.376	5.31102	7.36470	2.0
8.5928	88.7798	-0.70	0.35	0.00	15.50	7.376	5.31197	7.36602	2.0
8.6028	88.7998	-0.70	0.35	0.00	15.50	7.376	5.31292	7.36733	2.0
8.6128	88.8198	-0.70	0.35	0.00	15.50	7.376	5.31386	7.36864	6.0
8.6228	88.8398	-0.70	0.35	0.00	15.50	7.376	5.31481	7.36995	0.0
8.6328	88.8598	-0.70	0.35	0.00	15.50	7.376	5.31576	7.37127	4.0
8.6428	88.8798	-0.70	0.35	0.00	15.50	7.376	5.31670	7.37258	0.0
8.6528	88.8998	-0.70	0.35	0.00	15.50	7.376	5.31765	7.37389	2.0
8.6628	88.9198	-0.70	0.35	0.00	15.50	7.376	5.31860	7.37520	0.0
8.6728	88.9398	-0.70	0.35	0.00	15.50	7.376	5.31954	7.37651	2.0
8.6828	88.9598	-0.70	0.35	0.00	15.50	7.376	5.32049	7.37783	0.0

6.7228	84.9998	-0.70	0.35	0.00	15.50	7.376	5.12763	7.11563	2.0
6.7328	85.0198	-0.70	0.35	0.00	15.50	7.376	5.12861	7.11699	0.0
6.7428	85.0398	-0.70	0.35	0.00	15.50	7.376	5.12959	7.11834	0.0
6.7528	85.0598	-0.70	0.35	0.00	15.50	7.376	5.13056	7.11970	6.0
6.7628	85.0798	-0.70	0.35	0.00	15.50	7.376	5.13154	7.12105	0.0
6.7728	85.0998	-0.70	0.35	0.00	15.50	7.376	5.13252	7.12241	0.0
6.7828	85.1198	-0.70	0.35	0.00	15.50	7.376	5.13349	7.12376	4.0
6.7928	85.1398	-0.70	0.35	0.00	15.50	7.376	5.13447	7.12511	2.0
6.8028	85.1598	-0.70	0.35	0.00	15.50	7.376	5.13544	7.12647	2.0
6.8128	85.1798	-0.70	0.35	0.00	15.50	7.376	5.13642	7.12782	0.0
6.8228	85.1998	-0.70	0.35	0.00	15.50	7.376	5.13739	7.12917	0.0
6.8328	85.2198	-0.70	0.35	0.00	15.50	7.376	5.13837	7.13053	0.0
6.8428	85.2398	-0.70	0.35	0.00	15.50	7.376	5.13934	7.13188	0.0
6.8528	85.2598	-0.70	0.35	0.00	15.50	7.376	5.14032	7.13323	0.0
6.8628	85.2798	-0.70	0.35	0.00	15.50	7.376	5.14129	7.13459	2.0
6.8728	85.2998	-0.70	0.35	0.00	15.50	7.376	5.14227	7.13594	0.0
6.8828	85.3198	-0.70	0.35	0.00	15.50	7.376	5.14324	7.13729	4.0
6.8928	85.3398	-0.70	0.35	0.00	15.50	7.376	5.14421	7.13864	0.0
6.9028	85.3598	-0.70	0.35	0.00	15.50	7.376	5.14519	7.13999	0.0
6.9128	85.3798	-0.70	0.35	0.00	15.50	7.376	5.14616	7.14134	0.0
6.9228	85.3998	-0.70	0.35	0.00	15.50	7.376	5.14714	7.14270	4.0
6.9328	85.4198	-0.70	0.35	0.00	15.50	7.376	5.14811	7.14405	2.0
6.9428	85.4398	-0.70	0.35	0.00	15.50	7.376	5.14908	7.14540	0.0
6.9528	85.4598	-0.70	0.35	0.00	15.50	7.376	5.15006	7.14675	2.0
6.9628	85.4798	-0.70	0.35	0.00	15.50	7.376	5.15103	7.14810	2.0
6.9728	85.4998	-0.70	0.35	0.00	15.50	7.376	5.15200	7.14945	0.0
6.9828	85.5198	-0.70	0.35	0.00	15.50	7.376	5.15297	7.15080	0.0
6.9928	85.5398	-0.70	0.35	0.00	15.50	7.376	5.15395	7.15215	2.0
7.0028	85.5598	-0.70	0.35	0.00	15.50	7.376	5.15492	7.15350	2.0
7.0128	85.5798	-0.70	0.35	0.00	15.50	7.376	5.15589	7.15485	2.0
7.0228	85.5998	-0.70	0.35	0.00	15.50	7.376	5.15686	7.15619	0.0
7.0328	85.6198	-0.70	0.35	0.00	15.50	7.376	5.15784	7.15754	0.0
7.0428	85.6398	-0.70	0.35	0.00	15.50	7.376	5.15881	7.15889	0.0
7.0528	85.6598	-0.70	0.35	0.00	15.50	7.376	5.15978	7.16024	0.0
7.0628	85.6798	-0.70	0.35	0.00	15.50	7.376	5.16075	7.16159	0.0
7.0728	85.6998	-0.70	0.35	0.00	15.50	7.376	5.16172	7.16294	0.0
7.0828	85.7198	-0.70	0.35	0.00	15.50	7.376	5.16269	7.16428	0.0
7.0928	85.7398	-0.70	0.35	0.00	15.50	7.376	5.16366	7.16563	4.0
7.1028	85.7598	-0.70	0.35	0.00	15.50	7.376	5.16463	7.16698	0.0
7.1128	85.7798	-0.70	0.35	0.00	15.50	7.376	5.16560	7.16832	2.0
7.1228	85.7998	-0.70	0.35	0.00	15.50	7.376	5.16657	7.16967	0.0
7.1328	85.8198	-0.70	0.35	0.00	15.50	7.376	5.16755	7.17102	0.0
7.1428	85.8398	-0.70	0.35	0.00	15.50	7.376	5.16852	7.17236	0.0
7.1528	85.8598	-0.70	0.35	0.00	15.50	7.376	5.16949	7.17371	2.0
7.1628	85.8798	-0.70	0.35	0.00	15.50	7.376	5.17046	7.17506	0.0
7.1728	85.8998	-0.70	0.35	0.00	15.50	7.376	5.17142	7.17640	2.0
7.1828	85.9198	-0.70	0.35	0.00	15.50	7.376	5.17239	7.17775	2.0
7.1928	85.9398	-0.70	0.35	0.00	15.50	7.376	5.17336	7.17909	0.0
7.2028	85.9598	-0.70	0.35	0.00	15.50	7.376	5.17433	7.18044	0.0
7.2128	85.9798	-0.70	0.35	0.00	15.50	7.376	5.17530	7.18178	0.0
7.2228	85.9998	-0.70	0.35	0.00	15.50	7.376	5.17627	7.18313	0.0
7.2328	86.0198	-0.70	0.35	0.00	15.50	7.376	5.17724	7.18447	0.0
7.2428	86.0398	-0.70	0.35	0.00	15.50	7.376	5.17821	7.18581	0.0
7.2528	86.0598	-0.70	0.35	0.00	15.50	7.376	5.17918	7.18716	2.0
7.2628	86.0798	-0.70	0.35	0.00	15.50	7.376	5.18014	7.18850	0.0
7.2728	86.0998	-0.70	0.35	0.00	15.50	7.376	5.18111	7.18985	2.0
7.2828	86.1198	-0.70	0.35	0.00	15.50	7.376	5.18208	7.19119	2.0
7.2928	86.1398	-0.70	0.35	0.00	15.50	7.376	5.18305	7.19253	0.0
7.3028	86.1598	-0.70	0.35	0.00	15.50	7.376	5.18402	7.19387	0.0
7.3128	86.1798	-0.70	0.35	0.00	15.50	7.376	5.18498	7.19522	0.0
7.3228	86.1998	-0.70	0.35	0.00	15.50	7.376	5.18595	7.19656	6.0
7.3328	86.2198	-0.70	0.35	0.00	15.50	7.376	5.18692	7.19790	0.0
7.3428	86.2398	-0.70	0.35	0.00	15.50	7.376	5.18789	7.19924	4.0
7.3528	86.2598	-0.70	0.35	0.00	15.50	7.376	5.18885	7.20059	2.0
7.3628	86.2798	-0.70	0.35	0.00	15.50	7.376	5.18982	7.20193	2.0
7.3728	86.2998	-0.70	0.35	0.00	15.50	7.376	5.19079	7.20327	2.0
7.3828	86.3198	-0.70	0.35	0.00	15.50	7.376	5.19175	7.20461	0.0
7.3928	86.3398	-0.70	0.35	0.00	15.50	7.376	5.19272	7.20595	0.0
7.4028	86.3598	-0.70	0.35	0.00	15.50	7.376	5.19368	7.20729	2.0
7.4128	86.3798	-0.70	0.35	0.00	15.50	7.376	5.19465	7.20863	0.0
7.4228	86.3998	-0.70	0.35	0.00	15.50	7.376	5.19562	7.20997	4.0
7.4328	86.4198	-0.70	0.35	0.00	15.50	7.376	5.19658	7.21131	2.0
7.4428	86.4398	-0.70	0.35	0.00	15.50	7.376	5.19755	7.21265	0.0
7.4528	86.4598	-0.70	0.35	0.00	15.50	7.376	5.19851	7.21399	2.0
7.4628	86.4798	-0.70	0.35	0.00	15.50	7.376	5.19948	7.21533	6.0
7.4728	86.4998	-0.70	0.35	0.00	15.50	7.376	5.20044	7.21667	0.0
7.4828	86.5198	-0.70	0.35	0.00	15.50	7.376	5.20141	7.21801	6.0
7.4928	86.5398	-0.70	0.35	0.00	15.50	7.376	5.20237	7.21935	0.0
7.5028	86.5598	-0.70	0.35	0.00	15.50	7.376	5.20334	7.22068	0.0
7.5128	86.5798	-0.70	0.35	0.00	15.50	7.376	5.20430	7.22202	0.0
7.5228	86.5998	-0.70	0.35	0.00	15.50	7.376	5.20526	7.22336	2.0
7.5328	86.6198	-0.70	0.35	0.00	15.50	7.376	5.20623	7.22470	0.0
7.5428	86.6398	-0.70	0.35	0.00	15.50	7.376	5.20719	7.22604	2.0
7.5528	86.6598	-0.70	0.35	0.00	15.50	7.376	5.20816	7.22737	4.0
7.5628	86.6798	-0.70	0.35	0.00	15.50	7.376	5.20912	7.22871	0.0
7.5728	86.6998	-0.70	0.35	0.00	15.50	7.376	5.21008	7.23005	0.0
7.5828	86.7198	-0.70	0.35	0.00	15.50	7.376	5.21105	7.23138	2.0
7.5928	86.7398	-0.70	0.35	0.00	15.50	7.376	5.21201	7.23272	2.0
7.6028	86.7598	-0.70	0.35	0.00	15.50	7.376	5.21297	7.23406	0.0
7.6128	86.7798	-0.70	0.35	0.00	15.50	7.376	5.21393	7.23539	2.0
7.6228	86.7998	-0.70	0.35	0.00	15.50	7.376	5.21490	7.23673	0.0
7.6328	86.8198	-0.70	0.35	0.00	15.50	7.376	5.21586	7.23806	0.0
7.6428	86.8398	-0.70	0.35	0.00	15.50	7.376	5.21682	7.23940	2.0
7.6528	86.8598	-0.70	0.35	0.00	15.50	7.376	5.21778	7.24073	0.0
7.6628	86.8798	-0.70	0.35	0.00	15.50	7.376	5.21875	7.24207	2.0
7.6728	86.8998	-0.70	0.35	0.00	15.50	7.376	5.21971	7.24340	0.0
7.6828	86.9198	-0.70	0.35	0.00	15.50	7.376	5.22067	7.24474	0.0
7.6928	86.9398	-0.70	0.35	0.00	15.50	7.376	5.22163	7.24607	4.0
7.7028	86.9598	-0.70	0.35	0.00	15.50	7.376	5.22259	7.24741	2.0
7.7128	86.9798	-0.70	0.35	0.00	15.50	7.376	5.22355	7.24874	0.0
7.7228	86.9998	-0.70	0.35	0.00	15.50	7.376	5.22451	7.25007	0.0
7.7328	87.0198	-0.70	0.35	0.00	15.50	7.376	5.22547	7.25141	2.0
7.7428	87.0398	-0.70	0.35	0.00	15.50	7.376	5.22644	7.25274	0.0
7.7528	87.0598	-0.70	0.35	0.00	15.50	7.376	5.22740	7.25407	0.0
7.7628	87.0798	-0.70	0.35	0.00	15.50	7.376	5.22836	7.25541	8.0
7.7728	87.0998	-0.70	0.35	0.00	15.50	7.376	5.22932	7.25674	0.0
7.7828	87.1198	-0.70	0.35	0.00	15.50	7.376	5.23028	7.25807	2.0
7.7928	87.1398	-0.70	0.35	0.00	15.50	7.376	5.23124	7.25940	2.0
7.8028	87.1598	-0.70	0.35	0.00	15.50	7.376	5.23220	7.26073	0.0
7.8128	87.1798	-0.70	0.35	0.00	15.50	7.376	5.23316	7.26207	0.0
7.8228	87.1998	-0.70	0.35	0.00	15.50	7.376	5.23411	7.26340	0.0
7.8328	87.2198	-0.70	0.35	0.00	15.50	7.376	5.23507	7.26473	0.0
7.8428	87.2398	-0.70	0.35	0.00	15.50	7.376	5.23603	7.26606	0.0
7.8528	87.2598	-0.70	0.35	0.00	15.50	7.376	5.23699	7.26739	2.0
7.8628	87.2798	-0.70	0.35	0.00	15.50	7.376	5.23795	7.26872	2.0
7.8728	87.2998	-0.70	0.35	0.00	15.50	7.376	5.23891	7.27005	0.0
7.8828	87.3198	-0.70	0.35	0.00	15.50	7.376	5.23987	7.27138	2.0
7.8928	87.3398	-0.70	0.35	0.00	15.50	7.376	5.24083	7.27271	0.0
7.9028	87.3598	-0.70	0.35	0.00	15.50	7.376	5.24178	7.27404	2.0
7.9128	87.3798	-0.70	0.35	0.00	15.50	7.376	5.24274	7.27537	0.0
7.9228	87.3998	-0.70	0.35	0.00	15.50	7.376	5.24370	7.27670	2.0
7.9328	87.4198	-0.70	0.35	0.00	15.50	7.376	5.24466	7.27803	0.0
7.9428	87.4398	-0.70	0.35	0.00	15.50	7.376	5.24561	7.27936	0.0
7.9528	87.4598	-0.70	0.35	0.00	15.50	7.376	5.24657	7.28068	0.0
7.9628	87.4798	-0.70	0.35	0.00	15.50	7.376	5.24753	7.28201	0.0
7.9728	87.4998	-0.70	0.35	0.00	15.50	7.376	5.24849	7.28334	0.0
7.9828	87.5198	-0.70	0.35	0.00	15.50	7.376	5.24944	7.28467	2.0
7.9928	87.5398	-0.70	0.35	0.00	15.50	7.376	5.25040	7.28600	0.0
8.0028	87.5598	-0.70	0.35	0.00	15.50	7.376	5.25136	7.28732	0.0
8.0128	87.5798	-0.70	0.35	0.00	15.50	7.376	5.25231	7.28865	2.0
8.0228	87.5998	-0.70	0.35	0.00	15.50	7.376	5.25327	7.28998	2.0
8.0328	87.6198	-0.70	0.35	0.00	15.50	7.376	5.25422	7.29130	4.0
8.0428	87.6398	-0.70	0.35	0.00	15.50	7.376	5.25518	7.29263	0.0
8.0528	87.6598	-0.70	0.35	0.00	15.50	7.376	5.25614	7.29396	0.0
8.0628	87.6798	-0.70	0.35	0.00	15.50	7.376	5.25709	7.29528	2.0
8.0728	87.6998	-0.70	0.35	0.00	15.50	7.376	5.25805	7.29661	0.0
8.0828	87.7198	-0.70	0.35	0.00	15.50	7.376	5.25900	7.29793	2.0
8.0928	87.7398	-0.70	0.35	0.00	15.50	7.376	5.25996	7.29926	0.0
8.1028	87.7598	-0.70	0.35	0.00	15.50	7.376	5.26091	7.30058	0.0
8.1128	87.7798	-0.70	0.35	0.00	15.50	7.376	5.26187	7.30191	0.0
8.1228	87.7998	-0.70	0.35	0.00	15.50	7.376	5.26282	7.30323	0.0
8.1328	87.8198	-0.70	0.35	0.00	15.50	7.376	5.26378	7.30456	4.0
8.1428	87.8398	-0.70	0.35	0.00	15.50	7.376	5.26473	7.30588	0.0
8.1528	87.8598	-0.70	0.35	0.00	15.50	7.376	5.26568	7.30721	4.0
8.1628	87.8798	-0.70	0.35	0.00	15.50	7.376	5.26664	7.30853	0.0
8.1728	87.8998	-0.70	0.35	0.00	15.50	7.376	5.26759	7.30985	2.0
8.1828	87.9198	-0.70	0.35	0.00	15.50	7.376	5.26855	7.31118	0.0
8.1928	87.9398	-0.70	0.35	0.00	15.50	7.376	5.26950	7.31250	4.0
8.2028	87.9598	-0.70	0.35	0.00	15.50	7.376	5.27045	7.31382	0.0
8.2128	87.9798	-0.70	0.35	0.00	15.50	7.376	5.27141	7.31515	2.0
8.2228	87.9998	-0.70	0.35	0.00	15.50	7.376	5.27236	7.31647	0.0
8.2328	88.0198	-0.70	0.35	0.00	15.50	7.376	5.27331	7.31779	0.0
8.2428	88.0398	-0.70	0.35	0.00	15.50	7.376	5.27426	7.31911	0.0
8.2528	88.0598	-0.70	0.35	0.00	15.50	7.376	5.27522	7.32043	0.0
8.2628	88.0798	-0.70	0.35	0.00	15.50	7.376	5.27617	7.32176	0.0
8.2728	88.0998	-0.70	0.35	0.00	15.50	7.376	5.27712	7.32308	0.0
8.2828	88.1198	-0.70	0.35	0.00	15.50	7.376	5.27807	7.32440	0.0
8.2928	88.1398	-0.70	0.35	0.00	15.50	7.376	5.27903	7.32572	0.0
8.3028	88.1598	-0.70	0.35	0.00	15.50	7.376	5.27998	7.32704	0.0
8.3128	88.1798	-0.70	0.35	0.00	15.50	7.376	5.28093	7.32836	4.0
8.3228	88.1998	-0.70	0.35	0.00	15.50	7.376	5.28188	7.32968	0.0
8.3328	88.2198	-0.70	0.35	0.00	15.50	7.376	5.28283	7.33100	0.0
8.3428	88.2398	-0.70	0.35	0.00	15.50	7.376	5.28378	7.33232	2.0
8.3528	88.2598	-0.70	0.35	0.00	15.50	7.376	5.28473	7.33364	2.0
8.3628	88.2798	-0.70	0.35	0.00	15.50	7.376	5.28568	7.33496	2.0
8.3728	88.2998	-0.70	0.35	0.00	15.50	7.376	5.28663	7.33628	0.0
8.3828	88.3198	-0.70	0.35	0.00	15.50	7.376	5.28758	7.33760	0.0
8.3928	88.3398	-0.70	0.35	0.00	15.50	7.376	5.28854	7.33892	0.0
8.4028	88.3598	-0.70	0.35	0.00	15.50	7.376	5.28949	7.34023	0.0
8.4128	88.3798	-0.70	0.35	0.00	15.50	7.376	5.29044	7.34155	2.0
8.4228	88.3998	-0.70	0.35	0.00	15.50	7.376	5.29138	7.34287	0.0
8.4328	88.4198	-0.70	0.35	0.00	15.50	7.376	5.29233	7.34419	0.0
8.4428	88.4398	-0.70	0.35	0.00	15.50	7.376	5.29328	7.34551	0.0
8.4528	88.4598	-0.70	0.35	0.00	15.50	7.376	5.29423	7.34682	0.0
8.4628	88.4798	-0.70	0.35	0.00	15.50	7.376	5.29518	7.34814	2.0
8.4728	88.4998	-0.70	0.35	0.00	15.50	7.376	5.29613	7.34946	0.0
8.4828	88.5198	-0.70	0.35	0.00	15.50	7.376	5.29708	7.35077	2.0
8.4928	88.5398	-0.70	0.35	0.00	15.50	7.376	5.29803	7.35209	0.0
8.5028	88.5598	-0.70	0.35	0.00	15.50	7.376	5.29898	7.35341	0.0
8.5128	88.5798	-0.70	0.35	0.00	15.50	7.376	5.29993	7.35472	2.0
8.5228	88.5998	-0.70	0.35	0.00	15.50	7.376	5.30087	7.35604	0.0
8.5328	88.6198	-0.70	0.35	0.00	15.50	7.376	5.30182	7.35735	0.0
8.5428	88.6398	-0.70	0.35	0.00	15.50	7.376	5.30277	7.35867	2.0
8.5528	88.6598	-0.70	0.35	0.00	15.50	7.376	5.30372	7.35998	0.0
8.5628	88.6798	-0.70	0.35	0.00	15.50	7.376	5.30466	7.36130	0.0
8.5728	88.6998	-0.70	0.35	0.00	15.50	7.376	5.30561	7.36261	2.0
8.5828	88.7198	-0.70	0.35	0.00	15.50	7.376	5.30656	7.36393	2.0
8.5928	88.7398	-0.70	0.35	0.00	15.50	7.376	5.30751	7.36524	2.0
8.6028	88.7598	-0.70	0.35	0.00	15.50	7.376	5.30845	7.36656	0.0
8.6128	88.7798	-0.70	0.35	0.00	15.50	7.376	5.30940	7.36787	0.0
8.6228	88.7998	-0.70	0.35	0.00	15.50	7.376	5.31035	7.36918	0.0
8.6328	88.8198	-0.70	0.35	0.00	15.50	7.376	5.31129	7.37050	0.0
8.6428	88.8398	-0.70	0.35	0.00	15.50	7.376	5.31224	7.37181	0.0
8.6528	88.8598	-0.70	0.35	0.00	15.50	7.376	5.31318	7.37312	0.0
8.6628	88.8798	-0.70	0.35	0.00	15.50	7.376	5.31413	7.37443	0.0
8.6728	88.8998	-0.70	0.35	0.00	15.50	7.376	5.31508	7.37575	0.0
8.6828	88.9198	-0.70	0.35	0.00	15.50	7.376	5.31602	7.37706	2.0
8.6928	88.9398	-0.70	0.35	0.00	15.50	7.376	5.31697	7.37837	2.0
8.7028	88.9598	-0.70	0.35	0.00	15.50	7.376	5.31791	7.37968	0.0

6.7428	84.9998	-0.70	0.35	0.00	15.50	7.376	5.12515	7.11742	0.0
6.7528	85.0198	-0.70	0.35	0.00	15.50	7.376	5.12613	7.11878	0.0
6.7628	85.0398	-0.70	0.35	0.00	15.50	7.376	5.12710	7.12013	0.0
6.7728	85.0598	-0.70	0.35	0.00	15.50	7.376	5.12808	7.12149	2.0
6.7828	85.0798	-0.70	0.35	0.00	15.50	7.376	5.12905	7.12284	0.0
6.7928	85.0998	-0.70	0.35	0.00	15.50	7.376	5.13003	7.12420	2.0
6.8028	85.1198	-0.70	0.35	0.00	15.50	7.376	5.13100	7.12555	0.0
6.8128	85.1398	-0.70	0.35	0.00	15.50	7.376	5.13198	7.12691	0.0
6.8228	85.1598	-0.70	0.35	0.00	15.50	7.376	5.13295	7.12826	2.0
6.8328	85.1798	-0.70	0.35	0.00	15.50	7.376	5.13393	7.12961	2.0
6.8428	85.1998	-0.70	0.35	0.00	15.50	7.376	5.13490	7.13097	2.0
6.8528	85.2198	-0.70	0.35	0.00	15.50	7.376	5.13588	7.13232	0.0
6.8628	85.2398	-0.70	0.35	0.00	15.50	7.376	5.13685	7.13367	0.0
6.8728	85.2598	-0.70	0.35	0.00	15.50	7.376	5.13783	7.13503	0.0
6.8828	85.2798	-0.70	0.35	0.00	15.50	7.376	5.13880	7.13638	2.0
6.8928	85.2998	-0.70	0.35	0.00	15.50	7.376	5.13977	7.13773	2.0
6.9028	85.3198	-0.70	0.35	0.00	15.50	7.376	5.14075	7.13908	0.0
6.9128	85.3398	-0.70	0.35	0.00	15.50	7.376	5.14172	7.14044	0.0
6.9228	85.3598	-0.70	0.35	0.00	15.50	7.376	5.14270	7.14179	2.0
6.9328	85.3798	-0.70	0.35	0.00	15.50	7.376	5.14367	7.14314	0.0
6.9428	85.3998	-0.70	0.35	0.00	15.50	7.376	5.14464	7.14449	2.0
6.9528	85.4198	-0.70	0.35	0.00	15.50	7.376	5.14562	7.14584	2.0
6.9628	85.4398	-0.70	0.35	0.00	15.50	7.376	5.14659	7.14719	2.0
6.9728	85.4598	-0.70	0.35	0.00	15.50	7.376	5.14756	7.14854	0.0
6.9828	85.4798	-0.70	0.35	0.00	15.50	7.376	5.14853	7.14989	2.0
6.9928	85.4998	-0.70	0.35	0.00	15.50	7.376	5.14951	7.15125	2.0
7.0028	85.5198	-0.70	0.35	0.00	15.50	7.376	5.15048	7.15260	0.0
7.0128	85.5398	-0.70	0.35	0.00	15.50	7.376	5.15145	7.15395	2.0
7.0228	85.5598	-0.70	0.35	0.00	15.50	7.376	5.15242	7.15529	6.0
7.0328	85.5798	-0.70	0.35	0.00	15.50	7.376	5.15339	7.15664	0.0
7.0428	85.5998	-0.70	0.35	0.00	15.50	7.376	5.15436	7.15799	0.0
7.0528	85.6198	-0.70	0.35	0.00	15.50	7.376	5.15534	7.15934	0.0
[...]
9.4928	86.6598	-0.70	0.35	0.00	15.50	7.376	4.96050	7.39954	4.0
9.5028	86.6798	-0.70	0.35	0.00	15.50	7.376	4.96142	7.40091	0.0
9.5128	86.6998	-0.70	0.35	0.00	15.50	7.376	4.96234	7.40228	0.0
9.5228	86.7198	-0.70	0.35	0.00	15.50	7.376	4.96326	7.40365	0.0
9.5328	86.7398	-0.70	0.35	0.00	15.50	7.376	4.96417	7.40502	2.0
9.5428	86.7598	-0.70	0.35	0.00	15.50	7.376	4.96509	7.40638	4.0
9.5528	86.7798	-0.70	0.35	0.00	15.50	7.376	4.96601	7.40775	4.0
9.5628	86.7998	-0.70	0.35	0.00	15.50	7.376	4.96692	7.40912	2.0
9.5728	86.8198	-0.70	0.35	0.00	15.50	7.376	4.96784	7.41049	0.0
9.5828	86.8398	-0.70	0.35	0.00	15.50	7.376	4.96876	7.41185	0.0
9.5928	86.8598	-0.70	0.35	0.00	15.50	7.376	4.96967	7.41322	0.0
9.6028	86.8798	-0.70	0.35	0.00	15.50	7.376	4.97059	7.41459	2.0
9.6128	86.8998	-0.70	0.35	0.00	15.50	7.376	4.97151	7.41595	2.0
9.6228	86.9198	-0.70	0.35	0.00	15.50	7.376	4.97242	7.41732	0.0
9.6328	86.9398	-0.70	0.35	0.00	15.50	7.376	4.97334	7.41869	4.0
9.6428	86.9598	-0.70	0.35	0.00	15.50	7.376	4.97425	7.42005	6.0
9.6528	86.9798	-0.70	0.35	0.00	15.50	7.376	4.97517	7.42142	0.0
9.6628	86.9998	-0.70	0.35	0.00	15.50	7.376	4.97608	7.42278	2.0
9.6728	87.0198	-0.70	0.35	0.00	15.50	7.376	4.97700	7.42415	0.0
9.6828	87.0398	-0.70	0.35	0.00	15.50	7.376	4.97791	7.42551	0.0
9.6928	87.0598	-0.70	0.35	0.00	15.50	7.376	4.97883	7.42688	0.0
9.7028	87.0798	-0.70	0.35	0.00	15.50	7.376	4.97974	7.42824	0.0
9.7128	87.0998	-0.70	0.35	0.00	15.50	7.376	4.98066	7.42961	0.0
9.7228	87.1198	-0.70	0.35	0.00	15.50	7.376	4.98157	7.43097	0.0
9.7328	87.1398	-0.70	0.35	0.00	15.50	7.376	4.98249	7.43233	2.0
9.7428	87.1598	-0.70	0.35	0.00	15.50	7.376	4.98340	7.43370	2.0
9.7528	87.1798	-0.70	0.35	0.00	15.50	7.376	4.98431	7.43506	2.0
9.7628	87.1998	-0.70	0.35	0.00	15.50	7.376	4.98523	7.43642	2.0
9.7728	87.2198	-0.70	0.35	0.00	15.50	7.376	4.98614	7.43779	4.0
9.7828	87.2398	-0.70	0.35	0.00	15.50	7.376	4.98705	7.43915	2.0
9.7928	87.2598	-0.70	0.35	0.00	15.50	7.376	4.98797	7.44051	0.0
9.8028	87.2798	-0.70	0.35	0.00	15.50	7.376	4.98888	7.44187	0.0
9.8128	87.2998	-0.70	0.35	0.00	15.50	7.376	4.98979	7.44324	0.0
9.8228	87.3198	-0.70	0.35	0.00	15.50	7.376	4.99071	7.44460	2.0
9.8328	87.3398	-0.70	0.35	0.00	15.50	7.376	4.99162	7.44596	2.0
9.8428	87.3598	-0.70	0.35	0.00	15.50	7.376	4.99253	7.44732	0.0
9.8528	87.3798	-0.70	0.35	0.00	15.50	7.376	4.99344	7.44868	2.0
9.8628	87.3998	-0.70	0.35	0.00	15.50	7.376	4.99436	7.45004	4.0
9.8728	87.4198	-0.70	0.35	0.00	15.50	7.376	4.99527	7.45140	4.0
9.8828	87.4398	-0.70	0.35	0.00	15.50	7.376	4.99618	7.45276	0.0
9.8928	87.4598	-0.70	0.35	0.00	15.50	7.376	4.99709	7.45412	0.0
9.9028	87.4798	-0.70	0.35	0.00	15.50	7.376	4.99800	7.45548	2.0
9.9128	87.4998	-0.70	0.35	0.00	15.50	7.376	4.99892	7.45684	2.0
9.9228	87.5198	-0.70	0.35	0.00	15.50	7.376	4.99983	7.45820	2.0
9.9328	87.5398	-0.70	0.35	0.00	15.50	7.376	5.00074	7.45956	0.0
9.9428	87.5598	-0.70	0.35	0.00	15.50	7.376	5.00165	7.46092	2.0
9.9528	87.5798	-0.70	0.35	0.00	15.50	7.376	5.00256	7.46228	0.0
9.9628	87.5998	-0.70	0.35	0.00	15.50	7.376	5.00347	7.46364	4.0
9.9728	87.6198	-0.70	0.35	0.00	15.50	7.376	5.00438	7.46499	0.0
9.9828	87.6398	-0.70	0.35	0.00	15.50	7.376	5.00529	7.46635	2.0
9.9928	87.6598	-0.70	0.35	0.00	15.50	7.376	5.00620	7.46771	0.0
10.0028	87.6798	-0.70	0.35	0.00	15.50	7.376	5.00711	7.46907	4.0
10.0128	87.6998	-0.70	0.35	0.00	15.50	7.376	5.00802	7.47043	0.0
10.0228	87.7198	-0.70	0.35	0.00	15.50	7.376	5.00893	7.47178	0.0
10.0328	87.7398	-0.70	0.35	0.00	15.50	7.376	5.00984	7.47314	0.0
10.0428	87.7598	-0.70	0.35	0.00	15.50	7.376	5.01075	7.47450	0.0
10.0528	87.7798	-0.70	0.35	0.00	15.50	7.376	5.01166	7.47585	0.0
10.0628	87.7998	-0.70	0.35	0.00	15.50	7.376	5.01257	7.47721	0.0
10.0728	87.8198	-0.70	0.35	0.00	15.50	7.376	5.01348	7.47857	0.0
10.0828	87.8398	-0.70	0.35	0.00	15.50	7.376	5.01439	7.47992	2.0
10.0928	87.8598	-0.70	0.35	0.00	15.50	7.376	5.01530	7.48128	2.0
10.1028	87.8798	-0.70	0.35	0.00	15.50	7.376	5.01620	7.48263	0.0
10.1128	87.8998	-0.70	0.35	0.00	15.50	7.376	5.01711	7.48399	0.0
10.1228	87.9198	-0.70	0.35	0.00	15.50	7.376	5.01802	7.48534	0.0
10.1328	87.9398	-0.70	0.35	0.00	15.50	7.376	5.01893	7.48670	2.0
10.1428	87.9598	-0.70	0.35	0.00	15.50	7.376	5.01984	7.48805	2.0
10.1528	87.9798	-0.70	0.35	0.00	15.50	7.376	5.02075	7.48941	0.0
10.1628	87.9998	-0.70	0.35	0.00	15.50	7.376	5.02165	7.49076	2.0
10.1728	88.0198	-0.70	0.35	0.00	15.50	7.376	5.02256	7.49211	0.0
10.1828	88.0398	-0.70	0.35	0.00	15.50	7.376	5.02347	7.49347	0.0
10.1928	88.0598	-0.70	0.35	0.00	15.50	7.376	5.02438	7.49482	2.0
10.2028	88.0798	-0.70	0.35	0.00	15.50	7.376	5.02528	7.49617	4.0
10.2128	88.0998	-0.70	0.35	0.00	15.50	7.376	5.02619	7.49753	2.0
10.2228	88.1198	-0.70	0.35	0.00	15.50	7.376	5.02710	7.49888	0.0
10.2328	88.1398	-0.70	0.35	0.00	15.50	7.376	5.02800	7.50023	2.0
10.2428	88.1598	-0.70	0.35	0.00	15.50	7.376	5.02891	7.50158	2.0
10.2528	88.1798	-0.70	0.35	0.00	15.50	7.376	5.02982	7.50293	0.0
10.2628	88.1998	-0.70	0.35	0.00	15.50	7.376	5.03072	7.50429	0.0
10.2728	88.2198	-0.70	0.35	0.00	15.50	7.376	5.03163	7.50564	0.0
10.2828	88.2398	-0.70	0.35	0.00	15.50	7.376	5.03253	7.50699	2.0
10.2928	88.2598	-0.70	0.35	0.00	15.50	7.376	5.03344	7.50834	2.0
10.3028	88.2798	-0.70	0.35	0.00	15.50	7.376	5.03434	7.50969	2.0
10.3128	88.2998	-0.70	0.35	0.00	15.50	7.376	5.03525	7.51104	2.0
10.3228	88.3198	-0.70	0.35	0.00	15.50	7.376	5.03616	7.51239	2.0
10.3328	88.3398	-0.70	0.35	0.00	15.50	7.376	5.03706	7.51374	0.0
10.3428	88.3598	-0.70	0.35	0.00	15.50	7.376	5.03796	7.51509	0.0
10.3528	88.3798	-0.70	0.35	0.00	15.50	7.376	5.03887	7.51644	0.0
10.3628	88.3998	-0.70	0.35	0.00	15.50	7.376	5.03977	7.51779	0.0
10.3728	88.4198	-0.70	0.35	0.00	15.50	7.376	5.04068	7.51914	0.0
10.3828	88.4398	-0.70	0.35	0.00	15.50	7.376	5.04158	7.52049	0.0
10.3928	88.4598	-0.70	0.35	0.00	15.50	7.376	5.04249	7.52184	2.0
10.4028	88.4798	-0.70	0.35	0.00	15.50	7.376	5.04339	7.52319	2.0
10.4128	88.4998	-0.70	0.35	0.00	15.50	7.376	5.04430	7.52453	0.0
10.4228	88.5198	-0.70	0.35	0.00	15.50	7.376	5.04520	7.52588	2.0
10.4328	88.5398	-0.70	0.35	0.00	15.50	7.376	5.04610	7.52723	0.0
10.4428	88.5598	-0.70	0.35	0.00	15.50	7.376	5.04701	7.52858	0.0
10.4528	88.5798	-0.70	0.35	0.00	15.50	7.376	5.04791	7.52992	8.0
10.4628	88.5998	-0.70	0.35	0.00	15.50	7.376	5.04881	7.53127	0.0
10.4728	88.6198	-0.70	0.35	0.00	15.50	7.376	5.04971	7.53262	2.0
10.4828	88.6398	-0.70	0.35	0.00	15.50	7.376	5.05062	7.53396	4.0
10.4928	88.6598	-0.70	0.35	0.00	15.50	7.376	5.05152	7.53531	2.0
10.5028	88.6798	-0.70	0.35	0.00	15.50	7.376	5.05242	7.53666	2.0
10.5128	88.6998	-0.70	0.35	0.00	15.50	7.376	5.05332	7.53800	2.0
10.5228	88.7198	-0.70	0.35	0.00	15.50	7.376	5.05423	7.53935	0.0
10.5328	88.7398	-0.70	0.35	0.00	15.50	7.376	5.05513	7.54069	0.0
10.5428	88.7598	-0.70	0.35	0.00	15.50	7.376	5.05603	7.54204	0.0
10.5528	88.7798	-0.70	0.35	0.00	15.50	7.376	5.05693	7.54338	0.0
10.5628	88.7998	-0.70	0.35	0.00	15.50	7.376	5.05783	7.54473	0.0
10.5728	88.8198	-0.70	0.35	0.00	15.50	7.376	5.05874	7.54607	4.0
10.5828	88.8398	-0.70	0.35	0.00	15.50	7.376	5.05964	7.54742	0.0
10.5928	88.8598	-0.70	0.35	0.00	15.50	7.376	5.06054	7.54876	0.0
10.6028	88.8798	-0.70	0.35	0.00	15.50	7.376	5.06144	7.55011	2.0
10.6128	88.8998	-0.70	0.35	0.00	15.50	7.376	5.06234	7.55145	4.0
10.6228	88.9198	-0.70	0.35	0.00	15.50	7.376	5.06324	7.55279	0.0
10.6328	88.9398	-0.70	0.35	0.00	15.50	7.376	5.06414	7.55414	4.0
10.6428	88.9598	-0.70	0.35	0.00	15.50	7.376	5.06504	7.55548	2.0

8.6828	84.9998	-0.70	0.35	0.00	15.50	7.376	4.88127	7.28684	0.0
8.6928	85.0198	-0.70	0.35	0.00	15.50	7.376	4.88220	7.28823	0.0
8.7028	85.0398	-0.70	0.35	0.00	15.50	7.376	4.88313	7.28962	2.0
8.7128	85.0598	-0.70	0.35	0.00	15.50	7.376	4.88406	7.29101	0.0
8.7228	85.0798	-0.70	0.35	0.00	15.50	7.376	4.88498	7.29239	2.0
8.7328	85.0998	-0.70	0.35	0.00	15.50	7.376	4.88591	7.29378	2.0
8.7428	85.1198	-0.70	0.35	0.00	15.50	7.376	4.88684	7.29517	0.0
8.7528	85.1398	-0.70	0.35	0.00	15.50	7.376	4.88777	7.29655	0.0
8.7628	85.1598	-0.70	0.35	0.00	15.50	7.376	4.88870	7.29794	2.0
8.7728	85.1798	-0.70	0.35	0.00	15.50	7.376	4.88963	7.29933	2.0
8.7828	85.1998	-0.70	0.35	0.00	15.50	7.376	4.89056	7.30071	0.0
8.7928	85.2198	-0.70	0.35	0.00	15.50	7.376	4.89148	7.30210	0.0
8.8028	85.2398	-0.70	0.35	0.00	15.50	7.376	4.89241	7.30348	2.0
8.8128	85.2598	-0.70	0.35	0.00	15.50	7.376	4.89334	7.30487	0.0
8.8228	85.2798	-0.70	0.35	0.00	15.50	7.376	4.89427	7.30625	2.0
8.8328	85.2998	-0.70	0.35	0.00	15.50	7.376	4.89520	7.30764	0.0
8.8428	85.3198	-0.70	0.35	0.00	15.50	7.376	4.89612	7.30902	0.0
8.8528	85.3398	-0.70	0.35	0.00	15.50	7.376	4.89705	7.31041	0.0
8.8628	85.3598	-0.70	0.35	0.00	15.50	7.376	4.89798	7.31179	0.0
8.8728	85.3798	-0.70	0.35	0.00	15.50	7.376	4.89890	7.31317	0.0
8.8828	85.3998	-0.70	0.35	0.00	15.50	7.376	4.89983	7.31456	0.0
8.8928	85.4198	-0.70	0.35	0.00	15.50	7.376	4.90076	7.31594	0.0
8.9028	85.4398	-0.70	0.35	0.00	15.50	7.376	4.90168	7.31732	0.0
8.9128	85.4598	-0.70	0.35	0.00	15.50	7.376	4.90261	7.31871	0.0
8.9228	85.4798	-0.70	0.35	0.00	15.50	7.376	4.90354	7.32009	0.0
8.9328	85.4998	-0.70	0.35	0.00	15.50	7.376	4.90446	7.32147	2.0
8.9428	85.5198	-0.70	0.35	0.00	15.50	7.376	4.90539	7.32285	4.0
8.9528	85.5398	-0.70	0.35	0.00	15.50	7.376	4.90632	7.32424	4.0
8.9628	85.5598	-0.70	0.35	0.00	15.50	7.376	4.90724	7.32562	0.0
8.9728	85.5798	-0.70	0.35	0.00	15.50	7.376	4.90817	7.32700	2.0
8.9828	85.5998	-0.70	0.35	0.00	15.50	7.376	4.90909	7.32838	2.0
8.9928	85.6198	-0.70	0.35	0.00	15.50	7.376	4.91002	7.32976	2.0
9.0028	85.6398	-0.70	0.35	0.00	15.50	7.376	4.91094	7.33114	0.0
9.0128	85.6598	-0.70	0.35	0.00	15.50	7.376	4.91187	7.33252	0.0
9.0228	85.6798	-0.70	0.35	0.00	15.50	7.376	4.91279	7.33390	0.0
9.0328	85.6998	-0.70	0.35	0.00	15.50	7.376	4.91372	7.33528	4.0
9.0428	85.7198	-0.70	0.35	0.00	15.50	7.376	4.91464	7.33666	2.0
9.0528	85.7398	-0.70	0.35	0.00	15.50	7.376	4.91556	7.33804	2.0
9.0628	85.7598	-0.70	0.35	0.00	15.50	7.376	4.91649	7.33942	4.0
9.0728	85.7798	-0.70	0.35	0.00	15.50	7.376	4.91741	7.34080	0.0
9.0828	85.7998	-0.70	0.35	0.00	15.50	7.376	4.91834	7.34218	0.0
9.0928	85.8198	-0.70	0.35	0.00	15.50	7.376	4.91926	7.34356	2.0
9.1028	85.8398	-0.70	0.35	0.00	15.50	7.376	4.92018	7.34494	0.0
9.1128	85.8598	-0.70	0.35	0.00	15.50	7.376	4.92111	7.34632	0.0
9.1228	85.8798	-0.70	0.35	0.00	15.50	7.376	4.92203	7.34770	4.0
9.1328	85.8998	-0.70	0.35	0.00	15.50	7.376	4.92295	7.34907	2.0
9.1428	85.9198	-0.70	0.35	0.00	15.50	7.376	4.92388	7.35045	0.0
9.1528	85.9398	-0.70	0.35	0.00	15.50	7.376	4.92480	7.35183	0.0
9.1628	85.9598	-0.70	0.35	0.00	15.50	7.376	4.92572	7.35321	4.0
9.1728	85.9798	-0.70	0.35	0.00	15.50	7.376	4.92664	7.35458	2.0
9.1828	85.9998	-0.70	0.35	0.00	15.50	7.376	4.92757	7.35596	2.0
9.1928	86.0198	-0.70	0.35	0.00	15.50	7.376	4.92849	7.35734	2.0
9.2028	86.0398	-0.70	0.35	0.00	15.50	7.376	4.92941	7.35871	0.0
9.2128	86.0598	-0.70	0.35	0.00	15.50	7.376	4.93033	7.36009	4.0
9.2228	86.0798	-0.70	0.35	0.00	15.50	7.376	4.93125	7.36147	2.0
9.2328	86.0998	-0.70	0.35	0.00	15.50	7.376	4.93218	7.36284	0.0
9.2428	86.1198	-0.70	0.35	0.00	15.50	7.376	4.93310	7.36422	2.0
9.2528	86.1398	-0.70	0.35	0.00	15.50	7.376	4.93402	7.36559	0.0
9.2628	86.1598	-0.70	0.35	0.00	15.50	7.376	4.93494	7.36697	6.0
9.2728	86.1798	-0.70	0.35	0.00	15.50	7.376	4.93586	7.36834	0.0
9.2828	86.1998	-0.70	0.35	0.00	15.50	7.376	4.93678	7.36972	0.0
9.2928	86.2198	-0.70	0.35	0.00	15.50	7.376	4.93770	7.37109	0.0
9.3028	86.2398	-0.70	0.35	0.00	15.50	7.376	4.93862	7.37247	2.0
9.3128	86.2598	-0.70	0.35	0.00	15.50	7.376	4.93954	7.37384	2.0
9.3228	86.2798	-0.70	0.35	0.00	15.50	7.376	4.94046	7.37521	0.0
9.3328	86.2998	-0.70	0.35	0.00	15.50	7.376	4.94138	7.37659	4.0
9.3428	86.3198	-0.70	0.35	0.00	15.50	7.376	4.94230	7.37796	2.0
9.3528	86.3398	-0.70	0.35	0.00	15.50	7.376	4.94322	7.37933	0.0
9.3628	86.3598	-0.70	0.35	0.00	15.50	7.376	4.94414	7.38071	4.0
9.3728	86.3798	-0.70	0.35	0.00	15.50	7.376	4.94506	7.38208	0.0
9.3828	86.3998	-0.70	0.35	0.00	15.50	7.376	4.94598	7.38345	2.0
9.3928	86.4198	-0.70	0.35	0.00	15.50	7.376	4.94690	7.38482	0.0
9.4028	86.4398	-0.70	0.35	0.00	15.50	7.376	4.94782	7.38620	4.0
9.4128	86.4598	-0.70	0.35	0.00	15.50	7.376	4.94874	7.38757	2.0
9.4228	86.4798	-0.70	0.35	0.00	15.50	7.376	4.94966	7.38894	2.0
9.4328	86.4998	-0.70	0.35	0.00	15.50	7.376	4.95058	7.39031	2.0
9.4428	86.5198	-0.70	0.35	0.00	15.50	7.376	4.95149	7.39168	0.0
9.4528	86.5398	-0.70	0.35	0.00	15.50	7.376	4.95241	7.39305	4.0
9.4628	86.5598	-0.70	0.35	0.00	15.50	7.376	4.95333	7.39442	0.0
9.4728	86.5798	-0.70	0.35	0.00	15.50	7.376	4.95425	7.39579	2.0
9.4828	86.5998	-0.70	0.35	0.00	15.50	7.376	4.95517	7.39716	2.0
9.4928	86.6198	-0.70	0.35	0.00	15.50	7.376	4.95608	7.39853	2.0
9.5028	86.6398	-0.70	0.35	0.00	15.50	7.376	4.95700	7.39990	2.0
9.5128	86.6598	-0.70	0.35	0.00	15.50	7.376	4.95792	7.40127	2.0
9.5228	86.6798	-0.70	0.35	0.00	15.50	7.376	4.95884	7.40264	0.0
9.5328	86.6998	-0.70	0.35	0.00	15.50	7.376	4.95975	7.40401	2.0
9.5428	86.7198	-0.70	0.35	0.00	15.50	7.376	4.96067	7.40538	2.0
9.5528	86.7398	-0.70	0.35	0.00	15.50	7.376	4.96159	7.40675	4.0
9.5628	86.7598	-0.70	0.35	0.00	15.50	7.376	4.96250	7.40812	2.0
9.5728	86.7798	-0.70	0.35	0.00	15.50	7.376	4.96342	7.40948	0.0
9.5828	86.7998	-0.70	0.35	0.00	15.50	7.376	4.96434	7.41085	4.0
9.5928	86.8198	-0.70	0.35	0.00	15.50	7.376	4.96525	7.41222	2.0
9.6028	86.8398	-0.70	0.35	0.00	15.50	7.376	4.96617	7.41359	2.0
9.6128	86.8598	-0.70	0.35	0.00	15.50	7.376	4.96709	7.41495	0.0
9.6228	86.8798	-0.70	0.35	0.00	15.50	7.376	4.96800	7.41632	2.0
9.6328	86.8998	-0.70	0.35	0.00	15.50	7.376	4.96892	7.41769	0.0
9.6428	86.9198	-0.70	0.35	0.00	15.50	7.376	4.96983	7.41906	2.0
9.6528	86.9398	-0.70	0.35	0.00	15.50	7.376	4.97075	7.42042	2.0
9.6628	86.9598	-0.70	0.35	0.00	15.50	7.376	4.97166	7.42179	0.0
9.6728	86.9798	-0.70	0.35	0.00	15.50	7.376	4.97258	7.42315	4.0
9.6828	86.9998	-0.70	0.35	0.00	15.50	7.376	4.97349	7.42452	0.0
9.6928	87.0198	-0.70	0.35	0.00	15.50	7.376	4.97441	7.42588	0.0
9.7028	87.0398	-0.70	0.35	0.00	15.50	7.376	4.97532	7.42725	0.0
9.7128	87.0598	-0.70	0.35	0.00	15.50	7.376	4.97624	7.42861	0.0
9.7228	87.0798	-0.70	0.35	0.00	15.50	7.376	4.97715	7.42998	2.0
9.7328	87.0998	-0.70	0.35	0.00	15.50	7.376	4.97806	7.43134	0.0
9.7428	87.1198	-0.70	0.35	0.00	15.50	7.376	4.97898	7.43271	0.0
9.7528	87.1398	-0.70	0.35	0.00	15.50	7.376	4.97989	7.43407	2.0
9.7628	87.1598	-0.70	0.35	0.00	15.50	7.376	4.98080	7.43544	0.0
9.7728	87.1798	-0.70	0.35	0.00	15.50	7.376	4.98172	7.43680	8.0
9.7828	87.1998	-0.70	0.35	0.00	15.50	7.376	4.98263	7.43816	0.0
9.7928	87.2198	-0.70	0.35	0.00	15.50	7.376	4.98354	7.43953	0.0
9.8028	87.2398	-0.70	0.35	0.00	15.50	7.376	4.98446	7.44089	0.0
9.8128	87.2598	-0.70	0.35	0.00	15.50	7.376	4.98537	7.44225	0.0
9.8228	87.2798	-0.70	0.35	0.00	15.50	7.376	4.98628	7.44361	6.0
9.8328	87.2998	-0.70	0.35	0.00	15.50	7.376	4.98720	7.44498	0.0
9.8428	87.3198	-0.70	0.35	0.00	15.50	7.376	4.98811	7.44634	2.0
9.8528	87.3398	-0.70	0.35	0.00	15.50	7.376	4.98902	7.44770	2.0
9.8628	87.3598	-0.70	0.35	0.00	15.50	7.376	4.98993	7.44906	4.0
9.8728	87.3798	-0.70	0.35	0.00	15.50	7.376	4.99084	7.45042	0.0
9.8828	87.3998	-0.70	0.35	0.00	15.50	7.376	4.99176	7.45178	0.0
9.8928	87.4198	-0.70	0.35	0.00	15.50	7.376	4.99267	7.45315	4.0
9.9028	87.4398	-0.70	0.35	0.00	15.50	7.376	4.99358	7.45451	0.0
9.9128	87.4598	-0.70	0.35	0.00	15.50	7.376	4.99449	7.45587	4.0
9.9228	87.4798	-0.70	0.35	0.00	15.50	7.376	4.99540	7.45723	0.0
9.9328	87.4998	-0.70	0.35	0.00	15.50	7.376	4.99631	7.45859	4.0
9.9428	87.5198	-0.70	0.35	0.00	15.50	7.376	4.99722	7.45995	0.0
9.9528	87.5398	-0.70	0.35	0.00	15.50	7.376	4.99813	7.46131	0.0
9.9628	87.5598	-0.70	0.35	0.00	15.50	7.376	4.99904	7.46266	2.0
9.9728	87.5798	-0.70	0.35	0.00	15.50	7.376	4.99996	7.46402	0.0
9.9828	87.5998	-0.70	0.35	0.00	15.50	7.376	5.00087	7.46538	2.0
9.9928	87.6198	-0.70	0.35	0.00	15.50	7.376	5.00178	7.46674	0.0
10.0028	87.6398	-0.70	0.35	0.00	15.50	7.376	5.00269	7.46810	4.0
10.0128	87.6598	-0.70	0.35	0.00	15.50	7.376	5.00360	7.46946	0.0
10.0228	87.6798	-0.70	0.35	0.00	15.50	7.376	5.00450	7.47082	0.0
10.0328	87.6998	-0.70	0.35	0.00	15.50	7.376	5.00541	7.47217	0.0
10.0428	87.7198	-0.70	0.35	0.00	15.50	7.376	5.00632	7.47353	0.0
10.0528	87.7398	-0.70	0.35	0.00	15.50	7.376	5.00723	7.47489	0.0
10.0628	87.7598	-0.70	0.35	0.00	15.50	7.376	5.00814	7.47625	2.0
10.0728	87.7798	-0.70	0.35	0.00	15.50	7.376	5.00905	7.47760	2.0
10.0828	87.7998	-0.70	0.35	0.00	15.50	7.376	5.00996	7.47896	0.0
10.0928	87.8198	-0.70	0.35	0.00	15.50	7.376	5.01087	7.48031	0.0
10.1028	87.8398	-0.70	0.35	0.00	15.50	7.376	5.01178	7.48167	4.0
10.1128	87.8598	-0.70	0.35	0.00	15.50	7.376	5.01268	7.48303	4.0
10.1228	87.8798	-0.70	0.35	0.00	15.50	7.376	5.01359	7.48438	4.0
10.1328	87.8998	-0.70	0.35	0.00	15.50	7.376	5.01450	7.48574	4.0
10.1428	87.9198	-0.70	0.35	0.00	15.50	7.376	5.01541	7.48709	2.0
10.1528	87.9398	-0.70	0.35	0.00	15.50	7.376	5.01632	7.48845	2.0
10.1628	87.9598	-0.70	0.35	0.00	15.50	7.376	5.01722	7.48980	0.0
10.1728	87.9798	-0.70	0.35	0.00	15.50	7.376	5.01813	7.49116	2.0
10.1828	87.9998	-0.70	0.35	0.00	15.50	7.376	5.01904	7.49251	0.0
10.1928	88.0198	-0.70	0.35	0.00	15.50	7.376	5.01995	7.49387	0.0
10.2028	88.0398	-0.70	0.35	0.00	15.50	7.376	5.02085	7.49522	2.0
10.2128	88.0598	-0.70	0.35	0.00	15.50	7.376	5.02176	7.49657	0.0
10.2228	88.0798	-0.70	0.35	0.00	15.50	7.376	5.02267	7.49793	0.0
10.2328	88.0998	-0.70	0.35	0.00	15.50	7.376	5.02357	7.49928	0.0
10.2428	88.1198	-0.70	0.35	0.00	15.50	7.376	5.02448	7.50063	0.0
10.2528	88.1398	-0.70	0.35	0.00	15.50	7.376	5.02538	7.50198	2.0
10.2628	88.1598	-0.70	0.35	0.00	15.50	7.376	5.02629	7.50334	0.0
10.2728	88.1798	-0.70	0.35	0.00	15.50	7.376	5.02720	7.50469	0.0
10.2828	88.1998	-0.70	0.35	0.00	15.50	7.376	5.02810	7.50604	2.0
10.2928	88.2198	-0.70	0.35	0.00	15.50	7.376	5.02901	7.50739	0.0
10.3028	88.2398	-0.70	0.35	0.00	15.50	7.376	5.02991	7.50874	2.0
10.3128	88.2598	-0.70	0.35	0.00	15.50	7.376	5.03082	7.51010	0.0
10.3228	88.2798	-0.70	0.35	0.00	15.50	7.376	5.03172	7.51145	0.0
10.3328	88.2998	-0.70	0.35	0.00	15.50	7.376	5.03263	7.51280	2.0
10.3428	88.3198	-0.70	0.35	0.00	15.50	7.376	5.03353	7.51415	0.0
10.3528	88.3398	-0.70	0.35	0.00	15.50	7.376	5.03444	7.51550	0.0
10.3628	88.3598	-0.70	0.35	0.00	15.50	7.376	5.03534	7.51685	2.0
10.3728	88.3798	-0.70	0.35	0.00	15.50	7.376	5.03625	7.51820	0.0
10.3828	88.3998	-0.70	0.35	0.00	15.50	7.376	5.03715	7.51955	0.0
10.3928	88.4198	-0.70	0.35	0.00	15.50	7.376	5.03805	7.52090	4.0
10.4028	88.4398	-0.70	0.35	0.00	15.50	7.376	5.03896	7.52225	0.0
10.4128	88.4598	-0.70	0.35	0.00	15.50	7.376	5.03986	7.52360	2.0
10.4228	88.4798	-0.70	0.35	0.00	15.50	7.376	5.04076	7.52495	4.0
10.4328	88.4998	-0.70	0.35	0.00	15.50	7.376	5.04167	7.52629	6.0
10.4428	88.5198	-0.70	0.35	0.00	15.50	7.376	5.04257	7.52764	2.0
10.4528	88.5398	-0.70	0.35	0.00	15.50	7.376	5.04347	7.52899	0.0
10.4628	88.5598	-0.70	0.35	0.00	15.50	7.376	5.04438	7.53034	0.0
10.4728	88.5798	-0.70	0.35	0.00	15.50	7.376	5.04528	7.53169	2.0
10.4828	88.5998	-0.70	0.35	0.00	15.50	7.376	5.04618	7.53303	0.0
10.4928	88.6198	-0.70	0.35	0.00	15.50	7.376	5.04709	7.53438	2.0
10.5028	88.6398	-0.70	0.35	0.00	15.50	7.376	5.04799	7.53573	2.0
10.5128	88.6598	-0.70	0.35	0.00	15.50	7.376	5.04889	7.53707	0.0
10.5228	88.6798	-0.70	0.35	0.00	15.50	7.376	5.04979	7.53842	4.0
10.5328	88.6998	-0.70	0.35	0.00	15.50	7.376	5.05069	7.53977	0.0
10.5428	88.7198	-0.70	0.35	0.00	15.50	7.376	5.05159	7.54111	0.0
10.5528	88.7398	-0.70	0.35	0.00	15.50	7.376	5.05250	7.54246	0.0
10.5628	88.7598	-0.70	0.35	0.00	15.50	7.376	5.05340	7.54380	0.0
10.5728	88.7798	-0.70	0.35	0.00	15.50	7.376	5.05430	7.54515	0.0
10.5828	88.7998	-0.70	0.35	0.00	15.50	7.376	5.05520	7.54649	2.0
10.5928	88.8198	-0.70	0.35	0.00	15.50	7.376	5.05610	7.54784	0.0
10.6028	88.8398	-0.70	0.35	0.00	15.50	7.376	5.05700	7.54918	4.0
10.6128	88.8598	-0.70	0.35	0.00	15.50	7.376	5.05790	7.55053	0.0
10.6228	88.8798	-0.70	0.35	0.00	15.50	7.376	5.05880	7.55187	0.0
10.6328	88.8998	-0.70	0.35	0.00	15.50	7.376	5.05970	7.55322	2.0
10.6428	88.9198	-0.70	0.35	0.00	15.50	7.376	5.06060	7.55456	2.0
10.6528	88.9398	-0.70	0.35	0.00	15.50	7.376	5.06150	7.55590	4.0
10.6628	88.9598	-0.70	0.35	0.00	15.50	7.376	5.06240	7.55725	4.0