File: Data/113xx/2.0deg-2.0deg-rsm-3h10mins_11355-as-grown_224.dat
# filename: /home/lepecvd/lepecvd/11355/xray/2.0deg-2.0deg-rsm-3h10m_11355-E5_224.xrdml
# reflection: ('2', '2', '4')
# type: Area measurement
# x-axis: Omega_2Theta
# y-axis: Omega
#
# Omega	2Theta	Phi  	Chi   	X    	Y    	Z    	q_para	q_perp	Intensity
# [deg]	[deg] 	[deg]	[deg] 	[mm] 	[mm] 	[mm] 	[nm-1]	[nm-1]	[counts/s]
6.1078	85.0726	0.46	0.10	-30.00	-20.00	7.373	5.21181	7.06177	0.0
6.1178	85.0926	0.46	0.10	-30.00	-20.00	7.373	5.21280	7.06311	2.0
6.1278	85.1126	0.46	0.10	-30.00	-20.00	7.373	5.21379	7.06445	2.0
6.1378	85.1326	0.46	0.10	-30.00	-20.00	7.373	5.21478	7.06580	0.0
6.1478	85.1526	0.46	0.10	-30.00	-20.00	7.373	5.21577	7.06714	0.0
6.1578	85.1726	0.46	0.10	-30.00	-20.00	7.373	5.21676	7.06848	0.0
6.1678	85.1926	0.46	0.10	-30.00	-20.00	7.373	5.21775	7.06982	2.0
6.1778	85.2126	0.46	0.10	-30.00	-20.00	7.373	5.21874	7.07117	2.0
6.1878	85.2326	0.46	0.10	-30.00	-20.00	7.373	5.21974	7.07251	0.0
6.1978	85.2526	0.46	0.10	-30.00	-20.00	7.373	5.22073	7.07385	2.0
6.2078	85.2726	0.46	0.10	-30.00	-20.00	7.373	5.22172	7.07519	0.0
6.2178	85.2926	0.46	0.10	-30.00	-20.00	7.373	5.22270	7.07653	4.0
6.2278	85.3126	0.46	0.10	-30.00	-20.00	7.373	5.22369	7.07787	0.0
6.2378	85.3326	0.46	0.10	-30.00	-20.00	7.373	5.22468	7.07921	4.0
6.2478	85.3526	0.46	0.10	-30.00	-20.00	7.373	5.22567	7.08055	2.0
6.2578	85.3726	0.46	0.10	-30.00	-20.00	7.373	5.22666	7.08189	4.0
6.2678	85.3926	0.46	0.10	-30.00	-20.00	7.373	5.22765	7.08323	2.0
6.2778	85.4126	0.46	0.10	-30.00	-20.00	7.373	5.22864	7.08457	0.0
6.2878	85.4326	0.46	0.10	-30.00	-20.00	7.373	5.22963	7.08591	0.0
6.2978	85.4526	0.46	0.10	-30.00	-20.00	7.373	5.23062	7.08725	0.0
6.3078	85.4726	0.46	0.10	-30.00	-20.00	7.373	5.23161	7.08859	0.0
6.3178	85.4926	0.46	0.10	-30.00	-20.00	7.373	5.23259	7.08993	0.0
6.3278	85.5126	0.46	0.10	-30.00	-20.00	7.373	5.23358	7.09127	6.0
6.3378	85.5326	0.46	0.10	-30.00	-20.00	7.373	5.23457	7.09261	0.0
6.3478	85.5526	0.46	0.10	-30.00	-20.00	7.373	5.23556	7.09395	0.0
6.3578	85.5726	0.46	0.10	-30.00	-20.00	7.373	5.23654	7.09528	0.0
6.3678	85.5926	0.46	0.10	-30.00	-20.00	7.373	5.23753	7.09662	2.0
6.3778	85.6126	0.46	0.10	-30.00	-20.00	7.373	5.23852	7.09796	0.0
6.3878	85.6326	0.46	0.10	-30.00	-20.00	7.373	5.23951	7.09930	2.0
6.3978	85.6526	0.46	0.10	-30.00	-20.00	7.373	5.24049	7.10063	2.0
6.4078	85.6726	0.46	0.10	-30.00	-20.00	7.373	5.24148	7.10197	0.0
6.4178	85.6926	0.46	0.10	-30.00	-20.00	7.373	5.24247	7.10331	2.0
6.4278	85.7126	0.46	0.10	-30.00	-20.00	7.373	5.24345	7.10464	4.0
6.4378	85.7326	0.46	0.10	-30.00	-20.00	7.373	5.24444	7.10598	0.0
6.4478	85.7526	0.46	0.10	-30.00	-20.00	7.373	5.24543	7.10732	0.0
6.4578	85.7726	0.46	0.10	-30.00	-20.00	7.373	5.24641	7.10865	2.0
6.4678	85.7926	0.46	0.10	-30.00	-20.00	7.373	5.24740	7.10999	0.0
6.4778	85.8126	0.46	0.10	-30.00	-20.00	7.373	5.24838	7.11132	4.0
6.4878	85.8326	0.46	0.10	-30.00	-20.00	7.373	5.24937	7.11266	2.0
6.4978	85.8526	0.46	0.10	-30.00	-20.00	7.373	5.25035	7.11399	0.0
6.5078	85.8726	0.46	0.10	-30.00	-20.00	7.373	5.25134	7.11533	0.0
6.5178	85.8926	0.46	0.10	-30.00	-20.00	7.373	5.25232	7.11666	0.0
6.5278	85.9126	0.46	0.10	-30.00	-20.00	7.373	5.25331	7.11800	0.0
6.5378	85.9326	0.46	0.10	-30.00	-20.00	7.373	5.25429	7.11933	2.0
6.5478	85.9526	0.46	0.10	-30.00	-20.00	7.373	5.25528	7.12067	2.0
6.5578	85.9726	0.46	0.10	-30.00	-20.00	7.373	5.25626	7.12200	8.0
6.5678	85.9926	0.46	0.10	-30.00	-20.00	7.373	5.25725	7.12333	0.0
6.5778	86.0126	0.46	0.10	-30.00	-20.00	7.373	5.25823	7.12467	0.0
6.5878	86.0326	0.46	0.10	-30.00	-20.00	7.373	5.25921	7.12600	0.0
6.5978	86.0526	0.46	0.10	-30.00	-20.00	7.373	5.26020	7.12733	2.0
6.6078	86.0726	0.46	0.10	-30.00	-20.00	7.373	5.26118	7.12867	0.0
6.6178	86.0926	0.46	0.10	-30.00	-20.00	7.373	5.26216	7.13000	4.0
6.6278	86.1126	0.46	0.10	-30.00	-20.00	7.373	5.26315	7.13133	0.0
6.6378	86.1326	0.46	0.10	-30.00	-20.00	7.373	5.26413	7.13266	0.0
6.6478	86.1526	0.46	0.10	-30.00	-20.00	7.373	5.26511	7.13399	0.0
6.6578	86.1726	0.46	0.10	-30.00	-20.00	7.373	5.26610	7.13533	0.0
6.6678	86.1926	0.46	0.10	-30.00	-20.00	7.373	5.26708	7.13666	0.0
6.6778	86.2126	0.46	0.10	-30.00	-20.00	7.373	5.26806	7.13799	2.0
6.6878	86.2326	0.46	0.10	-30.00	-20.00	7.373	5.26904	7.13932	2.0
6.6978	86.2526	0.46	0.10	-30.00	-20.00	7.373	5.27003	7.14065	0.0
6.7078	86.2726	0.46	0.10	-30.00	-20.00	7.373	5.27101	7.14198	4.0
6.7178	86.2926	0.46	0.10	-30.00	-20.00	7.373	5.27199	7.14331	0.0
6.7278	86.3126	0.46	0.10	-30.00	-20.00	7.373	5.27297	7.14464	4.0
6.7378	86.3326	0.46	0.10	-30.00	-20.00	7.373	5.27395	7.14597	0.0
6.7478	86.3526	0.46	0.10	-30.00	-20.00	7.373	5.27493	7.14730	0.0
6.7578	86.3726	0.46	0.10	-30.00	-20.00	7.373	5.27591	7.14863	2.0
6.7678	86.3926	0.46	0.10	-30.00	-20.00	7.373	5.27690	7.14996	4.0
6.7778	86.4126	0.46	0.10	-30.00	-20.00	7.373	5.27788	7.15129	2.0
6.7878	86.4326	0.46	0.10	-30.00	-20.00	7.373	5.27886	7.15262	0.0
6.7978	86.4526	0.46	0.10	-30.00	-20.00	7.373	5.27984	7.15394	4.0
6.8078	86.4726	0.46	0.10	-30.00	-20.00	7.373	5.28082	7.15527	6.0
6.8178	86.4926	0.46	0.10	-30.00	-20.00	7.373	5.28180	7.15660	2.0
6.8278	86.5126	0.46	0.10	-30.00	-20.00	7.373	5.28278	7.15793	0.0
6.8378	86.5326	0.46	0.10	-30.00	-20.00	7.373	5.28376	7.15926	2.0
6.8478	86.5526	0.46	0.10	-30.00	-20.00	7.373	5.28474	7.16058	2.0
6.8578	86.5726	0.46	0.10	-30.00	-20.00	7.373	5.28572	7.16191	2.0
6.8678	86.5926	0.46	0.10	-30.00	-20.00	7.373	5.28670	7.16324	0.0
6.8778	86.6126	0.46	0.10	-30.00	-20.00	7.373	5.28768	7.16456	0.0
6.8878	86.6326	0.46	0.10	-30.00	-20.00	7.373	5.28865	7.16589	4.0
6.8978	86.6526	0.46	0.10	-30.00	-20.00	7.373	5.28963	7.16722	2.0
6.9078	86.6726	0.46	0.10	-30.00	-20.00	7.373	5.29061	7.16854	0.0
6.9178	86.6926	0.46	0.10	-30.00	-20.00	7.373	5.29159	7.16987	2.0
6.9278	86.7126	0.46	0.10	-30.00	-20.00	7.373	5.29257	7.17120	0.0
6.9378	86.7326	0.46	0.10	-30.00	-20.00	7.373	5.29355	7.17252	2.0
6.9478	86.7526	0.46	0.10	-30.00	-20.00	7.373	5.29453	7.17385	2.0
6.9578	86.7726	0.46	0.10	-30.00	-20.00	7.373	5.29550	7.17517	0.0
6.9678	86.7926	0.46	0.10	-30.00	-20.00	7.373	5.29648	7.17650	0.0
6.9778	86.8126	0.46	0.10	-30.00	-20.00	7.373	5.29746	7.17782	2.0
6.9878	86.8326	0.46	0.10	-30.00	-20.00	7.373	5.29844	7.17914	2.0
6.9978	86.8526	0.46	0.10	-30.00	-20.00	7.373	5.29941	7.18047	2.0
7.0078	86.8726	0.46	0.10	-30.00	-20.00	7.373	5.30039	7.18179	6.0
7.0178	86.8926	0.46	0.10	-30.00	-20.00	7.373	5.30137	7.18312	0.0
7.0278	86.9126	0.46	0.10	-30.00	-20.00	7.373	5.30234	7.18444	0.0
7.0378	86.9326	0.46	0.10	-30.00	-20.00	7.373	5.30332	7.18576	2.0
7.0478	86.9526	0.46	0.10	-30.00	-20.00	7.373	5.30430	7.18709	0.0
7.0578	86.9726	0.46	0.10	-30.00	-20.00	7.373	5.30527	7.18841	4.0
7.0678	86.9926	0.46	0.10	-30.00	-20.00	7.373	5.30625	7.18973	2.0
7.0778	87.0126	0.46	0.10	-30.00	-20.00	7.373	5.30723	7.19105	0.0
7.0878	87.0326	0.46	0.10	-30.00	-20.00	7.373	5.30820	7.19238	0.0
7.0978	87.0526	0.46	0.10	-30.00	-20.00	7.373	5.30918	7.19370	2.0
7.1078	87.0726	0.46	0.10	-30.00	-20.00	7.373	5.31015	7.19502	2.0
7.1178	87.0926	0.46	0.10	-30.00	-20.00	7.373	5.31113	7.19634	2.0
7.1278	87.1126	0.46	0.10	-30.00	-20.00	7.373	5.31210	7.19766	0.0
7.1378	87.1326	0.46	0.10	-30.00	-20.00	7.373	5.31308	7.19898	2.0
7.1478	87.1526	0.46	0.10	-30.00	-20.00	7.373	5.31405	7.20030	4.0
7.1578	87.1726	0.46	0.10	-30.00	-20.00	7.373	5.31503	7.20163	4.0
7.1678	87.1926	0.46	0.10	-30.00	-20.00	7.373	5.31600	7.20295	0.0
7.1778	87.2126	0.46	0.10	-30.00	-20.00	7.373	5.31698	7.20427	2.0
7.1878	87.2326	0.46	0.10	-30.00	-20.00	7.373	5.31795	7.20559	0.0
7.1978	87.2526	0.46	0.10	-30.00	-20.00	7.373	5.31892	7.20691	0.0
7.2078	87.2726	0.46	0.10	-30.00	-20.00	7.373	5.31990	7.20823	0.0
7.2178	87.2926	0.46	0.10	-30.00	-20.00	7.373	5.32087	7.20954	0.0
7.2278	87.3126	0.46	0.10	-30.00	-20.00	7.373	5.32185	7.21086	4.0
7.2378	87.3326	0.46	0.10	-30.00	-20.00	7.373	5.32282	7.21218	0.0
7.2478	87.3526	0.46	0.10	-30.00	-20.00	7.373	5.32379	7.21350	0.0
7.2578	87.3726	0.46	0.10	-30.00	-20.00	7.373	5.32477	7.21482	0.0
7.2678	87.3926	0.46	0.10	-30.00	-20.00	7.373	5.32574	7.21614	2.0
7.2778	87.4126	0.46	0.10	-30.00	-20.00	7.373	5.32671	7.21746	0.0
7.2878	87.4326	0.46	0.10	-30.00	-20.00	7.373	5.32768	7.21877	0.0
7.2978	87.4526	0.46	0.10	-30.00	-20.00	7.373	5.32866	7.22009	0.0
7.3078	87.4726	0.46	0.10	-30.00	-20.00	7.373	5.32963	7.22141	2.0
7.3178	87.4926	0.46	0.10	-30.00	-20.00	7.373	5.33060	7.22273	0.0
7.3278	87.5126	0.46	0.10	-30.00	-20.00	7.373	5.33157	7.22404	2.0
7.3378	87.5326	0.46	0.10	-30.00	-20.00	7.373	5.33254	7.22536	2.0
7.3478	87.5526	0.46	0.10	-30.00	-20.00	7.373	5.33352	7.22668	2.0
7.3578	87.5726	0.46	0.10	-30.00	-20.00	7.373	5.33449	7.22799	2.0
7.3678	87.5926	0.46	0.10	-30.00	-20.00	7.373	5.33546	7.22931	2.0
7.3778	87.6126	0.46	0.10	-30.00	-20.00	7.373	5.33643	7.23062	0.0
7.3878	87.6326	0.46	0.10	-30.00	-20.00	7.373	5.33740	7.23194	2.0
7.3978	87.6526	0.46	0.10	-30.00	-20.00	7.373	5.33837	7.23325	6.0
7.4078	87.6726	0.46	0.10	-30.00	-20.00	7.373	5.33934	7.23457	2.0
7.4178	87.6926	0.46	0.10	-30.00	-20.00	7.373	5.34031	7.23588	2.0
7.4278	87.7126	0.46	0.10	-30.00	-20.00	7.373	5.34128	7.23720	0.0
7.4378	87.7326	0.46	0.10	-30.00	-20.00	7.373	5.34225	7.23851	4.0
7.4478	87.7526	0.46	0.10	-30.00	-20.00	7.373	5.34322	7.23983	0.0
7.4578	87.7726	0.46	0.10	-30.00	-20.00	7.373	5.34419	7.24114	0.0
7.4678	87.7926	0.46	0.10	-30.00	-20.00	7.373	5.34516	7.24246	0.0
7.4778	87.8126	0.46	0.10	-30.00	-20.00	7.373	5.34613	7.24377	0.0
7.4878	87.8326	0.46	0.10	-30.00	-20.00	7.373	5.34710	7.24508	0.0
7.4978	87.8526	0.46	0.10	-30.00	-20.00	7.373	5.34807	7.24640	2.0
7.5078	87.8726	0.46	0.10	-30.00	-20.00	7.373	5.34904	7.24771	2.0
7.5178	87.8926	0.46	0.10	-30.00	-20.00	7.373	5.35001	7.24902	0.0
7.5278	87.9126	0.46	0.10	-30.00	-20.00	7.373	5.35098	7.25033	0.0
7.5378	87.9326	0.46	0.10	-30.00	-20.00	7.373	5.35194	7.25165	0.0
7.5478	87.9526	0.46	0.10	-30.00	-20.00	7.373	5.35291	7.25296	2.0
7.5578	87.9726	0.46	0.10	-30.00	-20.00	7.373	5.35388	7.25427	0.0
7.5678	87.9926	0.46	0.10	-30.00	-20.00	7.373	5.35485	7.25558	2.0
7.5778	88.0126	0.46	0.10	-30.00	-20.00	7.373	5.35582	7.25689	4.0
7.5878	88.0326	0.46	0.10	-30.00	-20.00	7.373	5.35678	7.25820	2.0
7.5978	88.0526	0.46	0.10	-30.00	-20.00	7.373	5.35775	7.25952	0.0
7.6078	88.0726	0.46	0.10	-30.00	-20.00	7.373	5.35872	7.26083	0.0
7.6178	88.0926	0.46	0.10	-30.00	-20.00	7.373	5.35969	7.26214	0.0
7.6278	88.1126	0.46	0.10	-30.00	-20.00	7.373	5.36065	7.26345	2.0
7.6378	88.1326	0.46	0.10	-30.00	-20.00	7.373	5.36162	7.26476	2.0
7.6478	88.1526	0.46	0.10	-30.00	-20.00	7.373	5.36259	7.26607	0.0
7.6578	88.1726	0.46	0.10	-30.00	-20.00	7.373	5.36355	7.26738	4.0
7.6678	88.1926	0.46	0.10	-30.00	-20.00	7.373	5.36452	7.26869	2.0
7.6778	88.2126	0.46	0.10	-30.00	-20.00	7.373	5.36549	7.27000	2.0
7.6878	88.2326	0.46	0.10	-30.00	-20.00	7.373	5.36645	7.27130	0.0
7.6978	88.2526	0.46	0.10	-30.00	-20.00	7.373	5.36742	7.27261	2.0
7.7078	88.2726	0.46	0.10	-30.00	-20.00	7.373	5.36838	7.27392	0.0
7.7178	88.2926	0.46	0.10	-30.00	-20.00	7.373	5.36935	7.27523	0.0
7.7278	88.3126	0.46	0.10	-30.00	-20.00	7.373	5.37032	7.27654	0.0
7.7378	88.3326	0.46	0.10	-30.00	-20.00	7.373	5.37128	7.27785	2.0
7.7478	88.3526	0.46	0.10	-30.00	-20.00	7.373	5.37225	7.27915	0.0
7.7578	88.3726	0.46	0.10	-30.00	-20.00	7.373	5.37321	7.28046	2.0
7.7678	88.3926	0.46	0.10	-30.00	-20.00	7.373	5.37418	7.28177	2.0
7.7778	88.4126	0.46	0.10	-30.00	-20.00	7.373	5.37514	7.28308	0.0
7.7878	88.4326	0.46	0.10	-30.00	-20.00	7.373	5.37610	7.28438	2.0
7.7978	88.4526	0.46	0.10	-30.00	-20.00	7.373	5.37707	7.28569	2.0
7.8078	88.4726	0.46	0.10	-30.00	-20.00	7.373	5.37803	7.28699	2.0
7.8178	88.4926	0.46	0.10	-30.00	-20.00	7.373	5.37900	7.28830	0.0
7.8278	88.5126	0.46	0.10	-30.00	-20.00	7.373	5.37996	7.28961	0.0
7.8378	88.5326	0.46	0.10	-30.00	-20.00	7.373	5.38092	7.29091	0.0
7.8478	88.5526	0.46	0.10	-30.00	-20.00	7.373	5.38189	7.29222	0.0
7.8578	88.5726	0.46	0.10	-30.00	-20.00	7.373	5.38285	7.29352	0.0
7.8678	88.5926	0.46	0.10	-30.00	-20.00	7.373	5.38381	7.29483	0.0
7.8778	88.6126	0.46	0.10	-30.00	-20.00	7.373	5.38478	7.29613	0.0
7.8878	88.6326	0.46	0.10	-30.00	-20.00	7.373	5.38574	7.29744	8.0
7.8978	88.6526	0.46	0.10	-30.00	-20.00	7.373	5.38670	7.29874	2.0
7.9078	88.6726	0.46	0.10	-30.00	-20.00	7.373	5.38766	7.30005	2.0
7.9178	88.6926	0.46	0.10	-30.00	-20.00	7.373	5.38863	7.30135	0.0
7.9278	88.7126	0.46	0.10	-30.00	-20.00	7.373	5.38959	7.30265	2.0
7.9378	88.7326	0.46	0.10	-30.00	-20.00	7.373	5.39055	7.30396	4.0
7.9478	88.7526	0.46	0.10	-30.00	-20.00	7.373	5.39151	7.30526	0.0
7.9578	88.7726	0.46	0.10	-30.00	-20.00	7.373	5.39247	7.30656	0.0
7.9678	88.7926	0.46	0.10	-30.00	-20.00	7.373	5.39344	7.30787	2.0
7.9778	88.8126	0.46	0.10	-30.00	-20.00	7.373	5.39440	7.30917	0.0
7.9878	88.8326	0.46	0.10	-30.00	-20.00	7.373	5.39536	7.31047	0.0
7.9978	88.8526	0.46	0.10	-30.00	-20.00	7.373	5.39632	7.31177	0.0
8.0078	88.8726	0.46	0.10	-30.00	-20.00	7.373	5.39728	7.31307	0.0
8.0178	88.8926	0.46	0.10	-30.00	-20.00	7.373	5.39824	7.31438	0.0
8.0278	88.9126	0.46	0.10	-30.00	-20.00	7.373	5.39920	7.31568	2.0
8.0378	88.9326	0.46	0.10	-30.00	-20.00	7.373	5.40016	7.31698	4.0
8.0478	88.9526	0.46	0.10	-30.00	-20.00	7.373	5.40112	7.31828	0.0
8.0578	88.9726	0.46	0.10	-30.00	-20.00	7.373	5.40208	7.31958	2.0
8.0678	88.9926	0.46	0.10	-30.00	-20.00	7.373	5.40304	7.32088	2.0
8.0778	89.0126	0.46	0.10	-30.00	-20.00	7.373	5.40400	7.32218	0.0
8.0878	89.0326	0.46	0.10	-30.00	-20.00	7.373	5.40496	7.32348	0.0

6.1278	85.0726	0.46	0.10	-30.00	-20.00	7.373	5.20934	7.06359	4.0
6.1378	85.0926	0.46	0.10	-30.00	-20.00	7.373	5.21033	7.06493	0.0
6.1478	85.1126	0.46	0.10	-30.00	-20.00	7.373	5.21132	7.06627	0.0
6.1578	85.1326	0.46	0.10	-30.00	-20.00	7.373	5.21232	7.06762	0.0
6.1678	85.1526	0.46	0.10	-30.00	-20.00	7.373	5.21331	7.06896	2.0
6.1778	85.1726	0.46	0.10	-30.00	-20.00	7.373	5.21430	7.07030	4.0
6.1878	85.1926	0.46	0.10	-30.00	-20.00	7.373	5.21529	7.07165	0.0
6.1978	85.2126	0.46	0.10	-30.00	-20.00	7.373	5.21628	7.07299	6.0
6.2078	85.2326	0.46	0.10	-30.00	-20.00	7.373	5.21727	7.07433	4.0
6.2178	85.2526	0.46	0.10	-30.00	-20.00	7.373	5.21826	7.07567	2.0
6.2278	85.2726	0.46	0.10	-30.00	-20.00	7.373	5.21924	7.07701	0.0
6.2378	85.2926	0.46	0.10	-30.00	-20.00	7.373	5.22023	7.07835	0.0
6.2478	85.3126	0.46	0.10	-30.00	-20.00	7.373	5.22122	7.07970	0.0
6.2578	85.3326	0.46	0.10	-30.00	-20.00	7.373	5.22221	7.08104	4.0
6.2678	85.3526	0.46	0.10	-30.00	-20.00	7.373	5.22320	7.08238	0.0
6.2778	85.3726	0.46	0.10	-30.00	-20.00	7.373	5.22419	7.08372	0.0
6.2878	85.3926	0.46	0.10	-30.00	-20.00	7.373	5.22518	7.08506	0.0
6.2978	85.4126	0.46	0.10	-30.00	-20.00	7.373	5.22617	7.08640	0.0
6.3078	85.4326	0.46	0.10	-30.00	-20.00	7.373	5.22715	7.08774	0.0
6.3178	85.4526	0.46	0.10	-30.00	-20.00	7.373	5.22814	7.08908	2.0
6.3278	85.4726	0.46	0.10	-30.00	-20.00	7.373	5.22913	7.09042	0.0
6.3378	85.4926	0.46	0.10	-30.00	-20.00	7.373	5.23012	7.09176	2.0
6.3478	85.5126	0.46	0.10	-30.00	-20.00	7.373	5.23111	7.09310	4.0
6.3578	85.5326	0.46	0.10	-30.00	-20.00	7.373	5.23209	7.09444	2.0
6.3678	85.5526	0.46	0.10	-30.00	-20.00	7.373	5.23308	7.09577	2.0
6.3778	85.5726	0.46	0.10	-30.00	-20.00	7.373	5.23407	7.09711	0.0
6.3878	85.5926	0.46	0.10	-30.00	-20.00	7.373	5.23505	7.09845	2.0
6.3978	85.6126	0.46	0.10	-30.00	-20.00	7.373	5.23604	7.09979	0.0
6.4078	85.6326	0.46	0.10	-30.00	-20.00	7.373	5.23703	7.10113	0.0
6.4178	85.6526	0.46	0.10	-30.00	-20.00	7.373	5.23801	7.10246	2.0
6.4278	85.6726	0.46	0.10	-30.00	-20.00	7.373	5.23900	7.10380	2.0
6.4378	85.6926	0.46	0.10	-30.00	-20.00	7.373	5.23999	7.10514	0.0
6.4478	85.7126	0.46	0.10	-30.00	-20.00	7.373	5.24097	7.10647	0.0
6.4578	85.7326	0.46	0.10	-30.00	-20.00	7.373	5.24196	7.10781	4.0
6.4678	85.7526	0.46	0.10	-30.00	-20.00	7.373	5.24294	7.10915	4.0
6.4778	85.7726	0.46	0.10	-30.00	-20.00	7.373	5.24393	7.11048	0.0
6.4878	85.7926	0.46	0.10	-30.00	-20.00	7.373	5.24491	7.11182	2.0
6.4978	85.8126	0.46	0.10	-30.00	-20.00	7.373	5.24590	7.11316	0.0
6.5078	85.8326	0.46	0.10	-30.00	-20.00	7.373	5.24688	7.11449	2.0
6.5178	85.8526	0.46	0.10	-30.00	-20.00	7.373	5.24787	7.11583	6.0
6.5278	85.8726	0.46	0.10	-30.00	-20.00	7.373	5.24885	7.11716	2.0
6.5378	85.8926	0.46	0.10	-30.00	-20.00	7.373	5.24984	7.11850	2.0
6.5478	85.9126	0.46	0.10	-30.00	-20.00	7.373	5.25082	7.11983	4.0
6.5578	85.9326	0.46	0.10	-30.00	-20.00	7.373	5.25181	7.12117	2.0
6.5678	85.9526	0.46	0.10	-30.00	-20.00	7.373	5.25279	7.12250	0.0
6.5778	85.9726	0.46	0.10	-30.00	-20.00	7.373	5.25378	7.12383	2.0
6.5878	85.9926	0.46	0.10	-30.00	-20.00	7.373	5.25476	7.12517	2.0
6.5978	86.0126	0.46	0.10	-30.00	-20.00	7.373	5.25574	7.12650	2.0
6.6078	86.0326	0.46	0.10	-30.00	-20.00	7.373	5.25673	7.12784	0.0
6.6178	86.0526	0.46	0.10	-30.00	-20.00	7.373	5.25771	7.12917	4.0
6.6278	86.0726	0.46	0.10	-30.00	-20.00	7.373	5.25869	7.13050	0.0
6.6378	86.0926	0.46	0.10	-30.00	-20.00	7.373	5.25968	7.13183	4.0
6.6478	86.1126	0.46	0.10	-30.00	-20.00	7.373	5.26066	7.13317	0.0
6.6578	86.1326	0.46	0.10	-30.00	-20.00	7.373	5.26164	7.13450	0.0
6.6678	86.1526	0.46	0.10	-30.00	-20.00	7.373	5.26262	7.13583	4.0
6.6778	86.1726	0.46	0.10	-30.00	-20.00	7.373	5.26361	7.13716	4.0
6.6878	86.1926	0.46	0.10	-30.00	-20.00	7.373	5.26459	7.13850	4.0
6.6978	86.2126	0.46	0.10	-30.00	-20.00	7.373	5.26557	7.13983	2.0
6.7078	86.2326	0.46	0.10	-30.00	-20.00	7.373	5.26655	7.14116	0.0
6.7178	86.2526	0.46	0.10	-30.00	-20.00	7.373	5.26753	7.14249	0.0
6.7278	86.2726	0.46	0.10	-30.00	-20.00	7.373	5.26851	7.14382	2.0
6.7378	86.2926	0.46	0.10	-30.00	-20.00	7.373	5.26950	7.14515	2.0
6.7478	86.3126	0.46	0.10	-30.00	-20.00	7.373	5.27048	7.14648	2.0
6.7578	86.3326	0.46	0.10	-30.00	-20.00	7.373	5.27146	7.14781	2.0
6.7678	86.3526	0.46	0.10	-30.00	-20.00	7.373	5.27244	7.14914	2.0
6.7778	86.3726	0.46	0.10	-30.00	-20.00	7.373	5.27342	7.15047	2.0
6.7878	86.3926	0.46	0.10	-30.00	-20.00	7.373	5.27440	7.15180	2.0
6.7978	86.4126	0.46	0.10	-30.00	-20.00	7.373	5.27538	7.15313	0.0
6.8078	86.4326	0.46	0.10	-30.00	-20.00	7.373	5.27636	7.15446	2.0
6.8178	86.4526	0.46	0.10	-30.00	-20.00	7.373	5.27734	7.15579	4.0
6.8278	86.4726	0.46	0.10	-30.00	-20.00	7.373	5.27832	7.15712	2.0
6.8378	86.4926	0.46	0.10	-30.00	-20.00	7.373	5.27930	7.15844	2.0
6.8478	86.5126	0.46	0.10	-30.00	-20.00	7.373	5.28028	7.15977	2.0
6.8578	86.5326	0.46	0.10	-30.00	-20.00	7.373	5.28126	7.16110	2.0
6.8678	86.5526	0.46	0.10	-30.00	-20.00	7.373	5.28224	7.16243	2.0
6.8778	86.5726	0.46	0.10	-30.00	-20.00	7.373	5.28322	7.16376	0.0
6.8878	86.5926	0.46	0.10	-30.00	-20.00	7.373	5.28420	7.16508	0.0
6.8978	86.6126	0.46	0.10	-30.00	-20.00	7.373	5.28517	7.16641	4.0
6.9078	86.6326	0.46	0.10	-30.00	-20.00	7.373	5.28615	7.16774	2.0
6.9178	86.6526	0.46	0.10	-30.00	-20.00	7.373	5.28713	7.16906	0.0
6.9278	86.6726	0.46	0.10	-30.00	-20.00	7.373	5.28811	7.17039	2.0
6.9378	86.6926	0.46	0.10	-30.00	-20.00	7.373	5.28909	7.17172	2.0
6.9478	86.7126	0.46	0.10	-30.00	-20.00	7.373	5.29007	7.17304	4.0
6.9578	86.7326	0.46	0.10	-30.00	-20.00	7.373	5.29104	7.17437	2.0
6.9678	86.7526	0.46	0.10	-30.00	-20.00	7.373	5.29202	7.17569	4.0
6.9778	86.7726	0.46	0.10	-30.00	-20.00	7.373	5.29300	7.17702	2.0
6.9878	86.7926	0.46	0.10	-30.00	-20.00	7.373	5.29398	7.17834	2.0
6.9978	86.8126	0.46	0.10	-30.00	-20.00	7.373	5.29495	7.17967	0.0
7.0078	86.8326	0.46	0.10	-30.00	-20.00	7.373	5.29593	7.18099	2.0
7.0178	86.8526	0.46	0.10	-30.00	-20.00	7.373	5.29691	7.18232	0.0
7.0278	86.8726	0.46	0.10	-30.00	-20.00	7.373	5.29788	7.18364	0.0
7.0378	86.8926	0.46	0.10	-30.00	-20.00	7.373	5.29886	7.18497	0.0
7.0478	86.9126	0.46	0.10	-30.00	-20.00	7.373	5.29984	7.18629	2.0
7.0578	86.9326	0.46	0.10	-30.00	-20.00	7.373	5.30081	7.18761	2.0
7.0678	86.9526	0.46	0.10	-30.00	-20.00	7.373	5.30179	7.18894	0.0
7.0778	86.9726	0.46	0.10	-30.00	-20.00	7.373	5.30276	7.19026	0.0
7.0878	86.9926	0.46	0.10	-30.00	-20.00	7.373	5.30374	7.19158	4.0
7.0978	87.0126	0.46	0.10	-30.00	-20.00	7.373	5.30472	7.19291	2.0
7.1078	87.0326	0.46	0.10	-30.00	-20.00	7.373	5.30569	7.19423	0.0
7.1178	87.0526	0.46	0.10	-30.00	-20.00	7.373	5.30667	7.19555	0.0
7.1278	87.0726	0.46	0.10	-30.00	-20.00	7.373	5.30764	7.19687	2.0
7.1378	87.0926	0.46	0.10	-30.00	-20.00	7.373	5.30862	7.19820	2.0
7.1478	87.1126	0.46	0.10	-30.00	-20.00	7.373	5.30959	7.19952	6.0
7.1578	87.1326	0.46	0.10	-30.00	-20.00	7.373	5.31056	7.20084	0.0
7.1678	87.1526	0.46	0.10	-30.00	-20.00	7.373	5.31154	7.20216	2.0
7.1778	87.1726	0.46	0.10	-30.00	-20.00	7.373	5.31251	7.20348	2.0
7.1878	87.1926	0.46	0.10	-30.00	-20.00	7.373	5.31349	7.20480	2.0
7.1978	87.2126	0.46	0.10	-30.00	-20.00	7.373	5.31446	7.20612	2.0
7.2078	87.2326	0.46	0.10	-30.00	-20.00	7.373	5.31544	7.20744	4.0
7.2178	87.2526	0.46	0.10	-30.00	-20.00	7.373	5.31641	7.20876	0.0
7.2278	87.2726	0.46	0.10	-30.00	-20.00	7.373	5.31738	7.21008	0.0
7.2378	87.2926	0.46	0.10	-30.00	-20.00	7.373	5.31836	7.21140	0.0
7.2478	87.3126	0.46	0.10	-30.00	-20.00	7.373	5.31933	7.21272	4.0
7.2578	87.3326	0.46	0.10	-30.00	-20.00	7.373	5.32030	7.21404	0.0
7.2678	87.3526	0.46	0.10	-30.00	-20.00	7.373	5.32127	7.21536	2.0
7.2778	87.3726	0.46	0.10	-30.00	-20.00	7.373	5.32225	7.21668	2.0
7.2878	87.3926	0.46	0.10	-30.00	-20.00	7.373	5.32322	7.21800	0.0
7.2978	87.4126	0.46	0.10	-30.00	-20.00	7.373	5.32419	7.21931	0.0
7.3078	87.4326	0.46	0.10	-30.00	-20.00	7.373	5.32516	7.22063	4.0
7.3178	87.4526	0.46	0.10	-30.00	-20.00	7.373	5.32614	7.22195	0.0
7.3278	87.4726	0.46	0.10	-30.00	-20.00	7.373	5.32711	7.22327	0.0
7.3378	87.4926	0.46	0.10	-30.00	-20.00	7.373	5.32808	7.22459	2.0
7.3478	87.5126	0.46	0.10	-30.00	-20.00	7.373	5.32905	7.22590	6.0
7.3578	87.5326	0.46	0.10	-30.00	-20.00	7.373	5.33002	7.22722	0.0
7.3678	87.5526	0.46	0.10	-30.00	-20.00	7.373	5.33099	7.22854	0.0
7.3778	87.5726	0.46	0.10	-30.00	-20.00	7.373	5.33196	7.22985	0.0
7.3878	87.5926	0.46	0.10	-30.00	-20.00	7.373	5.33293	7.23117	4.0
7.3978	87.6126	0.46	0.10	-30.00	-20.00	7.373	5.33391	7.23249	0.0
7.4078	87.6326	0.46	0.10	-30.00	-20.00	7.373	5.33488	7.23380	0.0
7.4178	87.6526	0.46	0.10	-30.00	-20.00	7.373	5.33585	7.23512	0.0
7.4278	87.6726	0.46	0.10	-30.00	-20.00	7.373	5.33682	7.23643	0.0
7.4378	87.6926	0.46	0.10	-30.00	-20.00	7.373	5.33779	7.23775	0.0
7.4478	87.7126	0.46	0.10	-30.00	-20.00	7.373	5.33876	7.23906	0.0
7.4578	87.7326	0.46	0.10	-30.00	-20.00	7.373	5.33973	7.24038	0.0
7.4678	87.7526	0.46	0.10	-30.00	-20.00	7.373	5.34070	7.24169	0.0
7.4778	87.7726	0.46	0.10	-30.00	-20.00	7.373	5.34166	7.24301	2.0
7.4878	87.7926	0.46	0.10	-30.00	-20.00	7.373	5.34263	7.24432	0.0
7.4978	87.8126	0.46	0.10	-30.00	-20.00	7.373	5.34360	7.24564	0.0
7.5078	87.8326	0.46	0.10	-30.00	-20.00	7.373	5.34457	7.24695	0.0
7.5178	87.8526	0.46	0.10	-30.00	-20.00	7.373	5.34554	7.24826	2.0
7.5278	87.8726	0.46	0.10	-30.00	-20.00	7.373	5.34651	7.24958	0.0
7.5378	87.8926	0.46	0.10	-30.00	-20.00	7.373	5.34748	7.25089	0.0
7.5478	87.9126	0.46	0.10	-30.00	-20.00	7.373	5.34845	7.25220	2.0
7.5578	87.9326	0.46	0.10	-30.00	-20.00	7.373	5.34941	7.25351	4.0
7.5678	87.9526	0.46	0.10	-30.00	-20.00	7.373	5.35038	7.25483	0.0
7.5778	87.9726	0.46	0.10	-30.00	-20.00	7.373	5.35135	7.25614	0.0
7.5878	87.9926	0.46	0.10	-30.00	-20.00	7.373	5.35232	7.25745	2.0
7.5978	88.0126	0.46	0.10	-30.00	-20.00	7.373	5.35328	7.25876	2.0
7.6078	88.0326	0.46	0.10	-30.00	-20.00	7.373	5.35425	7.26007	0.0
7.6178	88.0526	0.46	0.10	-30.00	-20.00	7.373	5.35522	7.26139	2.0
7.6278	88.0726	0.46	0.10	-30.00	-20.00	7.373	5.35619	7.26270	0.0
7.6378	88.0926	0.46	0.10	-30.00	-20.00	7.373	5.35715	7.26401	0.0
7.6478	88.1126	0.46	0.10	-30.00	-20.00	7.373	5.35812	7.26532	2.0
7.6578	88.1326	0.46	0.10	-30.00	-20.00	7.373	5.35908	7.26663	0.0
7.6678	88.1526	0.46	0.10	-30.00	-20.00	7.373	5.36005	7.26794	2.0
7.6778	88.1726	0.46	0.10	-30.00	-20.00	7.373	5.36102	7.26925	0.0
7.6878	88.1926	0.46	0.10	-30.00	-20.00	7.373	5.36198	7.27056	0.0
7.6978	88.2126	0.46	0.10	-30.00	-20.00	7.373	5.36295	7.27187	2.0
7.7078	88.2326	0.46	0.10	-30.00	-20.00	7.373	5.36391	7.27318	2.0
7.7178	88.2526	0.46	0.10	-30.00	-20.00	7.373	5.36488	7.27449	2.0
7.7278	88.2726	0.46	0.10	-30.00	-20.00	7.373	5.36585	7.27580	0.0
7.7378	88.2926	0.46	0.10	-30.00	-20.00	7.373	5.36681	7.27710	0.0
7.7478	88.3126	0.46	0.10	-30.00	-20.00	7.373	5.36778	7.27841	0.0
7.7578	88.3326	0.46	0.10	-30.00	-20.00	7.373	5.36874	7.27972	0.0
7.7678	88.3526	0.46	0.10	-30.00	-20.00	7.373	5.36970	7.28103	0.0
7.7778	88.3726	0.46	0.10	-30.00	-20.00	7.373	5.37067	7.28234	4.0
7.7878	88.3926	0.46	0.10	-30.00	-20.00	7.373	5.37163	7.28364	0.0
7.7978	88.4126	0.46	0.10	-30.00	-20.00	7.373	5.37260	7.28495	2.0
7.8078	88.4326	0.46	0.10	-30.00	-20.00	7.373	5.37356	7.28626	0.0
7.8178	88.4526	0.46	0.10	-30.00	-20.00	7.373	5.37453	7.28756	2.0
7.8278	88.4726	0.46	0.10	-30.00	-20.00	7.373	5.37549	7.28887	2.0
7.8378	88.4926	0.46	0.10	-30.00	-20.00	7.373	5.37645	7.29018	2.0
7.8478	88.5126	0.46	0.10	-30.00	-20.00	7.373	5.37742	7.29148	0.0
7.8578	88.5326	0.46	0.10	-30.00	-20.00	7.373	5.37838	7.29279	2.0
7.8678	88.5526	0.46	0.10	-30.00	-20.00	7.373	5.37934	7.29410	0.0
7.8778	88.5726	0.46	0.10	-30.00	-20.00	7.373	5.38030	7.29540	2.0
7.8878	88.5926	0.46	0.10	-30.00	-20.00	7.373	5.38127	7.29671	2.0
7.8978	88.6126	0.46	0.10	-30.00	-20.00	7.373	5.38223	7.29801	4.0
7.9078	88.6326	0.46	0.10	-30.00	-20.00	7.373	5.38319	7.29932	0.0
7.9178	88.6526	0.46	0.10	-30.00	-20.00	7.373	5.38415	7.30062	0.0
7.9278	88.6726	0.46	0.10	-30.00	-20.00	7.373	5.38512	7.30193	4.0
7.9378	88.6926	0.46	0.10	-30.00	-20.00	7.373	5.38608	7.30323	0.0
7.9478	88.7126	0.46	0.10	-30.00	-20.00	7.373	5.38704	7.30453	0.0
7.9578	88.7326	0.46	0.10	-30.00	-20.00	7.373	5.38800	7.30584	2.0
7.9678	88.7526	0.46	0.10	-30.00	-20.00	7.373	5.38896	7.30714	0.0
7.9778	88.7726	0.46	0.10	-30.00	-20.00	7.373	5.38992	7.30844	2.0
7.9878	88.7926	0.46	0.10	-30.00	-20.00	7.373	5.39088	7.30975	2.0
7.9978	88.8126	0.46	0.10	-30.00	-20.00	7.373	5.39185	7.31105	4.0
8.0078	88.8326	0.46	0.10	-30.00	-20.00	7.373	5.39281	7.31235	0.0
8.0178	88.8526	0.46	0.10	-30.00	-20.00	7.373	5.39377	7.31366	0.0
8.0278	88.8726	0.46	0.10	-30.00	-20.00	7.373	5.39473	7.31496	0.0
8.0378	88.8926	0.46	0.10	-30.00	-20.00	7.373	5.39569	7.31626	2.0
8.0478	88.9126	0.46	0.10	-30.00	-20.00	7.373	5.39665	7.31756	4.0
8.0578	88.9326	0.46	0.10	-30.00	-20.00	7.373	5.39761	7.31886	0.0
8.0678	88.9526	0.46	0.10	-30.00	-20.00	7.373	5.39857	7.32016	4.0
8.0778	88.9726	0.46	0.10	-30.00	-20.00	7.373	5.39953	7.32146	2.0
8.0878	88.9926	0.46	0.10	-30.00	-20.00	7.373	5.40049	7.32277	0.0
8.0978	89.0126	0.46	0.10	-30.00	-20.00	7.373	5.40144	7.32407	2.0
8.1078	89.0326	0.46	0.10	-30.00	-20.00	7.373	5.40240	7.32537	2.0

6.1478	85.0726	0.46	0.10	-30.00	-20.00	7.373	5.20688	7.06541	0.0
6.1578	85.0926	0.46	0.10	-30.00	-20.00	7.373	5.20787	7.06675	0.0
6.1678	85.1126	0.46	0.10	-30.00	-20.00	7.373	5.20886	7.06809	4.0
6.1778	85.1326	0.46	0.10	-30.00	-20.00	7.373	5.20985	7.06944	2.0
6.1878	85.1526	0.46	0.10	-30.00	-20.00	7.373	5.21084	7.07078	4.0
6.1978	85.1726	0.46	0.10	-30.00	-20.00	7.373	5.21183	7.07212	2.0
6.2078	85.1926	0.46	0.10	-30.00	-20.00	7.373	5.21282	7.07347	2.0
6.2178	85.2126	0.46	0.10	-30.00	-20.00	7.373	5.21381	7.07481	0.0
6.2278	85.2326	0.46	0.10	-30.00	-20.00	7.373	5.21480	7.07615	0.0
6.2378	85.2526	0.46	0.10	-30.00	-20.00	7.373	5.21579	7.07749	2.0
6.2478	85.2726	0.46	0.10	-30.00	-20.00	7.373	5.21677	7.07883	2.0
6.2578	85.2926	0.46	0.10	-30.00	-20.00	7.373	5.21776	7.08018	2.0
6.2678	85.3126	0.46	0.10	-30.00	-20.00	7.373	5.21875	7.08152	0.0
6.2778	85.3326	0.46	0.10	-30.00	-20.00	7.373	5.21974	7.08286	0.0
6.2878	85.3526	0.46	0.10	-30.00	-20.00	7.373	5.22073	7.08420	4.0
6.2978	85.3726	0.46	0.10	-30.00	-20.00	7.373	5.22172	7.08554	0.0
6.3078	85.3926	0.46	0.10	-30.00	-20.00	7.373	5.22270	7.08688	6.0
6.3178	85.4126	0.46	0.10	-30.00	-20.00	7.373	5.22369	7.08822	0.0
6.3278	85.4326	0.46	0.10	-30.00	-20.00	7.373	5.22468	7.08956	4.0
6.3378	85.4526	0.46	0.10	-30.00	-20.00	7.373	5.22567	7.09090	0.0
6.3478	85.4726	0.46	0.10	-30.00	-20.00	7.373	5.22666	7.09224	6.0
6.3578	85.4926	0.46	0.10	-30.00	-20.00	7.373	5.22764	7.09358	0.0
6.3678	85.5126	0.46	0.10	-30.00	-20.00	7.373	5.22863	7.09492	2.0
6.3778	85.5326	0.46	0.10	-30.00	-20.00	7.373	5.22962	7.09626	0.0
6.3878	85.5526	0.46	0.10	-30.00	-20.00	7.373	5.23060	7.09760	0.0
6.3978	85.5726	0.46	0.10	-30.00	-20.00	7.373	5.23159	7.09894	0.0
6.4078	85.5926	0.46	0.10	-30.00	-20.00	7.373	5.23258	7.10028	0.0
6.4178	85.6126	0.46	0.10	-30.00	-20.00	7.373	5.23356	7.10162	4.0
6.4278	85.6326	0.46	0.10	-30.00	-20.00	7.373	5.23455	7.10295	0.0
6.4378	85.6526	0.46	0.10	-30.00	-20.00	7.373	5.23553	7.10429	2.0
6.4478	85.6726	0.46	0.10	-30.00	-20.00	7.373	5.23652	7.10563	2.0
6.4578	85.6926	0.46	0.10	-30.00	-20.00	7.373	5.23751	7.10697	0.0
6.4678	85.7126	0.46	0.10	-30.00	-20.00	7.373	5.23849	7.10830	0.0
6.4778	85.7326	0.46	0.10	-30.00	-20.00	7.373	5.23948	7.10964	0.0
6.4878	85.7526	0.46	0.10	-30.00	-20.00	7.373	5.24046	7.11098	2.0
6.4978	85.7726	0.46	0.10	-30.00	-20.00	7.373	5.24145	7.11231	0.0
6.5078	85.7926	0.46	0.10	-30.00	-20.00	7.373	5.24243	7.11365	4.0
6.5178	85.8126	0.46	0.10	-30.00	-20.00	7.373	5.24342	7.11499	0.0
6.5278	85.8326	0.46	0.10	-30.00	-20.00	7.373	5.24440	7.11632	0.0
6.5378	85.8526	0.46	0.10	-30.00	-20.00	7.373	5.24539	7.11766	0.0
6.5478	85.8726	0.46	0.10	-30.00	-20.00	7.373	5.24637	7.11899	2.0
6.5578	85.8926	0.46	0.10	-30.00	-20.00	7.373	5.24735	7.12033	0.0
6.5678	85.9126	0.46	0.10	-30.00	-20.00	7.373	5.24834	7.12166	2.0
6.5778	85.9326	0.46	0.10	-30.00	-20.00	7.373	5.24932	7.12300	2.0
6.5878	85.9526	0.46	0.10	-30.00	-20.00	7.373	5.25030	7.12433	0.0
6.5978	85.9726	0.46	0.10	-30.00	-20.00	7.373	5.25129	7.12567	2.0
6.6078	85.9926	0.46	0.10	-30.00	-20.00	7.373	5.25227	7.12700	0.0
6.6178	86.0126	0.46	0.10	-30.00	-20.00	7.373	5.25325	7.12834	4.0
6.6278	86.0326	0.46	0.10	-30.00	-20.00	7.373	5.25424	7.12967	0.0
6.6378	86.0526	0.46	0.10	-30.00	-20.00	7.373	5.25522	7.13100	0.0
6.6478	86.0726	0.46	0.10	-30.00	-20.00	7.373	5.25620	7.13234	2.0
6.6578	86.0926	0.46	0.10	-30.00	-20.00	7.373	5.25719	7.13367	0.0
6.6678	86.1126	0.46	0.10	-30.00	-20.00	7.373	5.25817	7.13500	0.0
6.6778	86.1326	0.46	0.10	-30.00	-20.00	7.373	5.25915	7.13634	4.0
6.6878	86.1526	0.46	0.10	-30.00	-20.00	7.373	5.26013	7.13767	2.0
6.6978	86.1726	0.46	0.10	-30.00	-20.00	7.373	5.26111	7.13900	0.0
6.7078	86.1926	0.46	0.10	-30.00	-20.00	7.373	5.26210	7.14033	0.0
6.7178	86.2126	0.46	0.10	-30.00	-20.00	7.373	5.26308	7.14166	2.0
6.7278	86.2326	0.46	0.10	-30.00	-20.00	7.373	5.26406	7.14300	0.0
6.7378	86.2526	0.46	0.10	-30.00	-20.00	7.373	5.26504	7.14433	0.0
6.7478	86.2726	0.46	0.10	-30.00	-20.00	7.373	5.26602	7.14566	2.0
6.7578	86.2926	0.46	0.10	-30.00	-20.00	7.373	5.26700	7.14699	2.0
6.7678	86.3126	0.46	0.10	-30.00	-20.00	7.373	5.26798	7.14832	0.0
6.7778	86.3326	0.46	0.10	-30.00	-20.00	7.373	5.26896	7.14965	2.0
6.7878	86.3526	0.46	0.10	-30.00	-20.00	7.373	5.26994	7.15098	2.0
6.7978	86.3726	0.46	0.10	-30.00	-20.00	7.373	5.27092	7.15231	2.0
6.8078	86.3926	0.46	0.10	-30.00	-20.00	7.373	5.27190	7.15364	2.0
6.8178	86.4126	0.46	0.10	-30.00	-20.00	7.373	5.27288	7.15497	0.0
6.8278	86.4326	0.46	0.10	-30.00	-20.00	7.373	5.27386	7.15630	0.0
6.8378	86.4526	0.46	0.10	-30.00	-20.00	7.373	5.27484	7.15763	0.0
6.8478	86.4726	0.46	0.10	-30.00	-20.00	7.373	5.27582	7.15896	2.0
6.8578	86.4926	0.46	0.10	-30.00	-20.00	7.373	5.27680	7.16029	0.0
6.8678	86.5126	0.46	0.10	-30.00	-20.00	7.373	5.27778	7.16162	2.0
6.8778	86.5326	0.46	0.10	-30.00	-20.00	7.373	5.27876	7.16294	0.0
6.8878	86.5526	0.46	0.10	-30.00	-20.00	7.373	5.27974	7.16427	4.0
6.8978	86.5726	0.46	0.10	-30.00	-20.00	7.373	5.28072	7.16560	0.0
6.9078	86.5926	0.46	0.10	-30.00	-20.00	7.373	5.28169	7.16693	0.0
6.9178	86.6126	0.46	0.10	-30.00	-20.00	7.373	5.28267	7.16825	0.0
6.9278	86.6326	0.46	0.10	-30.00	-20.00	7.373	5.28365	7.16958	2.0
6.9378	86.6526	0.46	0.10	-30.00	-20.00	7.373	5.28463	7.17091	2.0
6.9478	86.6726	0.46	0.10	-30.00	-20.00	7.373	5.28561	7.17224	0.0
6.9578	86.6926	0.46	0.10	-30.00	-20.00	7.373	5.28658	7.17356	0.0
6.9678	86.7126	0.46	0.10	-30.00	-20.00	7.373	5.28756	7.17489	0.0
6.9778	86.7326	0.46	0.10	-30.00	-20.00	7.373	5.28854	7.17621	4.0
6.9878	86.7526	0.46	0.10	-30.00	-20.00	7.373	5.28952	7.17754	0.0
6.9978	86.7726	0.46	0.10	-30.00	-20.00	7.373	5.29049	7.17887	2.0
7.0078	86.7926	0.46	0.10	-30.00	-20.00	7.373	5.29147	7.18019	0.0
7.0178	86.8126	0.46	0.10	-30.00	-20.00	7.373	5.29245	7.18152	2.0
7.0278	86.8326	0.46	0.10	-30.00	-20.00	7.373	5.29342	7.18284	0.0
7.0378	86.8526	0.46	0.10	-30.00	-20.00	7.373	5.29440	7.18417	0.0
7.0478	86.8726	0.46	0.10	-30.00	-20.00	7.373	5.29538	7.18549	2.0
7.0578	86.8926	0.46	0.10	-30.00	-20.00	7.373	5.29635	7.18682	2.0
7.0678	86.9126	0.46	0.10	-30.00	-20.00	7.373	5.29733	7.18814	4.0
7.0778	86.9326	0.46	0.10	-30.00	-20.00	7.373	5.29830	7.18946	6.0
7.0878	86.9526	0.46	0.10	-30.00	-20.00	7.373	5.29928	7.19079	4.0
7.0978	86.9726	0.46	0.10	-30.00	-20.00	7.373	5.30025	7.19211	0.0
7.1078	86.9926	0.46	0.10	-30.00	-20.00	7.373	5.30123	7.19343	2.0
7.1178	87.0126	0.46	0.10	-30.00	-20.00	7.373	5.30220	7.19476	8.0
7.1278	87.0326	0.46	0.10	-30.00	-20.00	7.373	5.30318	7.19608	0.0
7.1378	87.0526	0.46	0.10	-30.00	-20.00	7.373	5.30415	7.19740	2.0
7.1478	87.0726	0.46	0.10	-30.00	-20.00	7.373	5.30513	7.19873	2.0
7.1578	87.0926	0.46	0.10	-30.00	-20.00	7.373	5.30610	7.20005	0.0
7.1678	87.1126	0.46	0.10	-30.00	-20.00	7.373	5.30708	7.20137	2.0
7.1778	87.1326	0.46	0.10	-30.00	-20.00	7.373	5.30805	7.20269	0.0
7.1878	87.1526	0.46	0.10	-30.00	-20.00	7.373	5.30902	7.20401	2.0
7.1978	87.1726	0.46	0.10	-30.00	-20.00	7.373	5.31000	7.20533	2.0
7.2078	87.1926	0.46	0.10	-30.00	-20.00	7.373	5.31097	7.20666	2.0
7.2178	87.2126	0.46	0.10	-30.00	-20.00	7.373	5.31195	7.20798	6.0
7.2278	87.2326	0.46	0.10	-30.00	-20.00	7.373	5.31292	7.20930	0.0
7.2378	87.2526	0.46	0.10	-30.00	-20.00	7.373	5.31389	7.21062	2.0
7.2478	87.2726	0.46	0.10	-30.00	-20.00	7.373	5.31486	7.21194	0.0
7.2578	87.2926	0.46	0.10	-30.00	-20.00	7.373	5.31584	7.21326	2.0
7.2678	87.3126	0.46	0.10	-30.00	-20.00	7.373	5.31681	7.21458	6.0
7.2778	87.3326	0.46	0.10	-30.00	-20.00	7.373	5.31778	7.21590	4.0
7.2878	87.3526	0.46	0.10	-30.00	-20.00	7.373	5.31876	7.21722	2.0
7.2978	87.3726	0.46	0.10	-30.00	-20.00	7.373	5.31973	7.21854	2.0
7.3078	87.3926	0.46	0.10	-30.00	-20.00	7.373	5.32070	7.21985	2.0
7.3178	87.4126	0.46	0.10	-30.00	-20.00	7.373	5.32167	7.22117	0.0
7.3278	87.4326	0.46	0.10	-30.00	-20.00	7.373	5.32264	7.22249	4.0
7.3378	87.4526	0.46	0.10	-30.00	-20.00	7.373	5.32361	7.22381	0.0
7.3478	87.4726	0.46	0.10	-30.00	-20.00	7.373	5.32459	7.22513	2.0
7.3578	87.4926	0.46	0.10	-30.00	-20.00	7.373	5.32556	7.22645	0.0
7.3678	87.5126	0.46	0.10	-30.00	-20.00	7.373	5.32653	7.22776	0.0
7.3778	87.5326	0.46	0.10	-30.00	-20.00	7.373	5.32750	7.22908	2.0
7.3878	87.5526	0.46	0.10	-30.00	-20.00	7.373	5.32847	7.23040	0.0
7.3978	87.5726	0.46	0.10	-30.00	-20.00	7.373	5.32944	7.23171	0.0
7.4078	87.5926	0.46	0.10	-30.00	-20.00	7.373	5.33041	7.23303	2.0
7.4178	87.6126	0.46	0.10	-30.00	-20.00	7.373	5.33138	7.23435	6.0
7.4278	87.6326	0.46	0.10	-30.00	-20.00	7.373	5.33235	7.23566	2.0
7.4378	87.6526	0.46	0.10	-30.00	-20.00	7.373	5.33332	7.23698	0.0
7.4478	87.6726	0.46	0.10	-30.00	-20.00	7.373	5.33429	7.23830	0.0
7.4578	87.6926	0.46	0.10	-30.00	-20.00	7.373	5.33526	7.23961	0.0
7.4678	87.7126	0.46	0.10	-30.00	-20.00	7.373	5.33623	7.24093	0.0
7.4778	87.7326	0.46	0.10	-30.00	-20.00	7.373	5.33720	7.24224	0.0
7.4878	87.7526	0.46	0.10	-30.00	-20.00	7.373	5.33817	7.24356	0.0
7.4978	87.7726	0.46	0.10	-30.00	-20.00	7.373	5.33914	7.24487	0.0
7.5078	87.7926	0.46	0.10	-30.00	-20.00	7.373	5.34010	7.24619	0.0
7.5178	87.8126	0.46	0.10	-30.00	-20.00	7.373	5.34107	7.24750	0.0
7.5278	87.8326	0.46	0.10	-30.00	-20.00	7.373	5.34204	7.24881	2.0
7.5378	87.8526	0.46	0.10	-30.00	-20.00	7.373	5.34301	7.25013	0.0
7.5478	87.8726	0.46	0.10	-30.00	-20.00	7.373	5.34398	7.25144	2.0
7.5578	87.8926	0.46	0.10	-30.00	-20.00	7.373	5.34495	7.25276	0.0
7.5678	87.9126	0.46	0.10	-30.00	-20.00	7.373	5.34591	7.25407	0.0
7.5778	87.9326	0.46	0.10	-30.00	-20.00	7.373	5.34688	7.25538	0.0
7.5878	87.9526	0.46	0.10	-30.00	-20.00	7.373	5.34785	7.25669	0.0
7.5978	87.9726	0.46	0.10	-30.00	-20.00	7.373	5.34882	7.25801	0.0
7.6078	87.9926	0.46	0.10	-30.00	-20.00	7.373	5.34978	7.25932	2.0
7.6178	88.0126	0.46	0.10	-30.00	-20.00	7.373	5.35075	7.26063	4.0
7.6278	88.0326	0.46	0.10	-30.00	-20.00	7.373	5.35172	7.26194	0.0
7.6378	88.0526	0.46	0.10	-30.00	-20.00	7.373	5.35268	7.26325	0.0
7.6478	88.0726	0.46	0.10	-30.00	-20.00	7.373	5.35365	7.26457	0.0
7.6578	88.0926	0.46	0.10	-30.00	-20.00	7.373	5.35462	7.26588	4.0
7.6678	88.1126	0.46	0.10	-30.00	-20.00	7.373	5.35558	7.26719	0.0
7.6778	88.1326	0.46	0.10	-30.00	-20.00	7.373	5.35655	7.26850	0.0
7.6878	88.1526	0.46	0.10	-30.00	-20.00	7.373	5.35751	7.26981	2.0
7.6978	88.1726	0.46	0.10	-30.00	-20.00	7.373	5.35848	7.27112	0.0
7.7078	88.1926	0.46	0.10	-30.00	-20.00	7.373	5.35944	7.27243	0.0
7.7178	88.2126	0.46	0.10	-30.00	-20.00	7.373	5.36041	7.27374	4.0
7.7278	88.2326	0.46	0.10	-30.00	-20.00	7.373	5.36138	7.27505	0.0
7.7378	88.2526	0.46	0.10	-30.00	-20.00	7.373	5.36234	7.27636	0.0
7.7478	88.2726	0.46	0.10	-30.00	-20.00	7.373	5.36331	7.27767	6.0
7.7578	88.2926	0.46	0.10	-30.00	-20.00	7.373	5.36427	7.27898	0.0
7.7678	88.3126	0.46	0.10	-30.00	-20.00	7.373	5.36523	7.28029	6.0
7.7778	88.3326	0.46	0.10	-30.00	-20.00	7.373	5.36620	7.28159	0.0
7.7878	88.3526	0.46	0.10	-30.00	-20.00	7.373	5.36716	7.28290	0.0
7.7978	88.3726	0.46	0.10	-30.00	-20.00	7.373	5.36813	7.28421	2.0
7.8078	88.3926	0.46	0.10	-30.00	-20.00	7.373	5.36909	7.28552	0.0
7.8178	88.4126	0.46	0.10	-30.00	-20.00	7.373	5.37005	7.28683	2.0
7.8278	88.4326	0.46	0.10	-30.00	-20.00	7.373	5.37102	7.28813	0.0
7.8378	88.4526	0.46	0.10	-30.00	-20.00	7.373	5.37198	7.28944	6.0
7.8478	88.4726	0.46	0.10	-30.00	-20.00	7.373	5.37294	7.29075	4.0
7.8578	88.4926	0.46	0.10	-30.00	-20.00	7.373	5.37391	7.29205	0.0
7.8678	88.5126	0.46	0.10	-30.00	-20.00	7.373	5.37487	7.29336	0.0
7.8778	88.5326	0.46	0.10	-30.00	-20.00	7.373	5.37583	7.29467	2.0
7.8878	88.5526	0.46	0.10	-30.00	-20.00	7.373	5.37680	7.29597	0.0
7.8978	88.5726	0.46	0.10	-30.00	-20.00	7.373	5.37776	7.29728	0.0
7.9078	88.5926	0.46	0.10	-30.00	-20.00	7.373	5.37872	7.29858	0.0
7.9178	88.6126	0.46	0.10	-30.00	-20.00	7.373	5.37968	7.29989	0.0
7.9278	88.6326	0.46	0.10	-30.00	-20.00	7.373	5.38064	7.30120	0.0
7.9378	88.6526	0.46	0.10	-30.00	-20.00	7.373	5.38161	7.30250	2.0
7.9478	88.6726	0.46	0.10	-30.00	-20.00	7.373	5.38257	7.30380	0.0
7.9578	88.6926	0.46	0.10	-30.00	-20.00	7.373	5.38353	7.30511	4.0
7.9678	88.7126	0.46	0.10	-30.00	-20.00	7.373	5.38449	7.30641	4.0
7.9778	88.7326	0.46	0.10	-30.00	-20.00	7.373	5.38545	7.30772	0.0
7.9878	88.7526	0.46	0.10	-30.00	-20.00	7.373	5.38641	7.30902	0.0
7.9978	88.7726	0.46	0.10	-30.00	-20.00	7.373	5.38737	7.31033	0.0
8.0078	88.7926	0.46	0.10	-30.00	-20.00	7.373	5.38833	7.31163	0.0
8.0178	88.8126	0.46	0.10	-30.00	-20.00	7.373	5.38929	7.31293	2.0
8.0278	88.8326	0.46	0.10	-30.00	-20.00	7.373	5.39025	7.31423	2.0
8.0378	88.8526	0.46	0.10	-30.00	-20.00	7.373	5.39121	7.31554	2.0
8.0478	88.8726	0.46	0.10	-30.00	-20.00	7.373	5.39217	7.31684	0.0
8.0578	88.8926	0.46	0.10	-30.00	-20.00	7.373	5.39313	7.31814	0.0
8.0678	88.9126	0.46	0.10	-30.00	-20.00	7.373	5.39409	7.31944	0.0
8.0778	88.9326	0.46	0.10	-30.00	-20.00	7.373	5.39505	7.32075	0.0
8.0878	88.9526	0.46	0.10	-30.00	-20.00	7.373	5.39601	7.32205	0.0
8.0978	88.9726	0.46	0.10	-30.00	-20.00	7.373	5.39697	7.32335	0.0
8.1078	88.9926	0.46	0.10	-30.00	-20.00	7.373	5.39793	7.32465	2.0
8.1178	89.0126	0.46	0.10	-30.00	-20.00	7.373	5.39889	7.32595	2.0
8.1278	89.0326	0.46	0.10	-30.00	-20.00	7.373	5.39985	7.32725	2.0

6.1678	85.0726	0.46	0.10	-30.00	-20.00	7.373	5.20441	7.06722	0.0
6.1778	85.0926	0.46	0.10	-30.00	-20.00	7.373	5.20540	7.06857	0.0
6.1878	85.1126	0.46	0.10	-30.00	-20.00	7.373	5.20639	7.06991	2.0
6.1978	85.1326	0.46	0.10	-30.00	-20.00	7.373	5.20738	7.07125	4.0
6.2078	85.1526	0.46	0.10	-30.00	-20.00	7.373	5.20837	7.07260	2.0
6.2178	85.1726	0.46	0.10	-30.00	-20.00	7.373	5.20936	7.07394	6.0
6.2278	85.1926	0.46	0.10	-30.00	-20.00	7.373	5.21035	7.07528	2.0
6.2378	85.2126	0.46	0.10	-30.00	-20.00	7.373	5.21134	7.07663	0.0
6.2478	85.2326	0.46	0.10	-30.00	-20.00	7.373	5.21233	7.07797	4.0
6.2578	85.2526	0.46	0.10	-30.00	-20.00	7.373	5.21331	7.07931	2.0
6.2678	85.2726	0.46	0.10	-30.00	-20.00	7.373	5.21430	7.08066	2.0
6.2778	85.2926	0.46	0.10	-30.00	-20.00	7.373	5.21529	7.08200	2.0
6.2878	85.3126	0.46	0.10	-30.00	-20.00	7.373	5.21628	7.08334	0.0
[...]
8.9978	86.8926	0.46	0.10	-30.00	-20.00	7.373	5.05002	7.36199	0.0
9.0078	86.9126	0.46	0.10	-30.00	-20.00	7.373	5.05095	7.36335	0.0
9.0178	86.9326	0.46	0.10	-30.00	-20.00	7.373	5.05188	7.36471	0.0
9.0278	86.9526	0.46	0.10	-30.00	-20.00	7.373	5.05281	7.36606	2.0
9.0378	86.9726	0.46	0.10	-30.00	-20.00	7.373	5.05374	7.36742	0.0
9.0478	86.9926	0.46	0.10	-30.00	-20.00	7.373	5.05467	7.36877	2.0
9.0578	87.0126	0.46	0.10	-30.00	-20.00	7.373	5.05560	7.37013	0.0
9.0678	87.0326	0.46	0.10	-30.00	-20.00	7.373	5.05653	7.37148	2.0
9.0778	87.0526	0.46	0.10	-30.00	-20.00	7.373	5.05746	7.37284	2.0
9.0878	87.0726	0.46	0.10	-30.00	-20.00	7.373	5.05839	7.37419	0.0
9.0978	87.0926	0.46	0.10	-30.00	-20.00	7.373	5.05932	7.37555	2.0
9.1078	87.1126	0.46	0.10	-30.00	-20.00	7.373	5.06025	7.37690	4.0
9.1178	87.1326	0.46	0.10	-30.00	-20.00	7.373	5.06118	7.37826	4.0
9.1278	87.1526	0.46	0.10	-30.00	-20.00	7.373	5.06211	7.37961	2.0
9.1378	87.1726	0.46	0.10	-30.00	-20.00	7.373	5.06303	7.38096	0.0
9.1478	87.1926	0.46	0.10	-30.00	-20.00	7.373	5.06396	7.38232	4.0
9.1578	87.2126	0.46	0.10	-30.00	-20.00	7.373	5.06489	7.38367	0.0
9.1678	87.2326	0.46	0.10	-30.00	-20.00	7.373	5.06582	7.38502	0.0
9.1778	87.2526	0.46	0.10	-30.00	-20.00	7.373	5.06675	7.38638	2.0
9.1878	87.2726	0.46	0.10	-30.00	-20.00	7.373	5.06767	7.38773	0.0
9.1978	87.2926	0.46	0.10	-30.00	-20.00	7.373	5.06860	7.38908	4.0
9.2078	87.3126	0.46	0.10	-30.00	-20.00	7.373	5.06953	7.39043	0.0
9.2178	87.3326	0.46	0.10	-30.00	-20.00	7.373	5.07046	7.39178	0.0
9.2278	87.3526	0.46	0.10	-30.00	-20.00	7.373	5.07138	7.39313	0.0
9.2378	87.3726	0.46	0.10	-30.00	-20.00	7.373	5.07231	7.39449	2.0
9.2478	87.3926	0.46	0.10	-30.00	-20.00	7.373	5.07324	7.39584	0.0
9.2578	87.4126	0.46	0.10	-30.00	-20.00	7.373	5.07416	7.39719	2.0
9.2678	87.4326	0.46	0.10	-30.00	-20.00	7.373	5.07509	7.39854	2.0
9.2778	87.4526	0.46	0.10	-30.00	-20.00	7.373	5.07602	7.39989	0.0
9.2878	87.4726	0.46	0.10	-30.00	-20.00	7.373	5.07694	7.40124	0.0
9.2978	87.4926	0.46	0.10	-30.00	-20.00	7.373	5.07787	7.40259	2.0
9.3078	87.5126	0.46	0.10	-30.00	-20.00	7.373	5.07879	7.40394	4.0
9.3178	87.5326	0.46	0.10	-30.00	-20.00	7.373	5.07972	7.40529	6.0
9.3278	87.5526	0.46	0.10	-30.00	-20.00	7.373	5.08064	7.40664	0.0
9.3378	87.5726	0.46	0.10	-30.00	-20.00	7.373	5.08157	7.40799	0.0
9.3478	87.5926	0.46	0.10	-30.00	-20.00	7.373	5.08250	7.40934	2.0
9.3578	87.6126	0.46	0.10	-30.00	-20.00	7.373	5.08342	7.41068	2.0
9.3678	87.6326	0.46	0.10	-30.00	-20.00	7.373	5.08435	7.41203	0.0
9.3778	87.6526	0.46	0.10	-30.00	-20.00	7.373	5.08527	7.41338	4.0
9.3878	87.6726	0.46	0.10	-30.00	-20.00	7.373	5.08619	7.41473	0.0
9.3978	87.6926	0.46	0.10	-30.00	-20.00	7.373	5.08712	7.41608	0.0
9.4078	87.7126	0.46	0.10	-30.00	-20.00	7.373	5.08804	7.41742	0.0
9.4178	87.7326	0.46	0.10	-30.00	-20.00	7.373	5.08897	7.41877	2.0
9.4278	87.7526	0.46	0.10	-30.00	-20.00	7.373	5.08989	7.42012	2.0
9.4378	87.7726	0.46	0.10	-30.00	-20.00	7.373	5.09082	7.42146	2.0
9.4478	87.7926	0.46	0.10	-30.00	-20.00	7.373	5.09174	7.42281	2.0
9.4578	87.8126	0.46	0.10	-30.00	-20.00	7.373	5.09266	7.42416	2.0
9.4678	87.8326	0.46	0.10	-30.00	-20.00	7.373	5.09359	7.42550	4.0
9.4778	87.8526	0.46	0.10	-30.00	-20.00	7.373	5.09451	7.42685	0.0
9.4878	87.8726	0.46	0.10	-30.00	-20.00	7.373	5.09543	7.42819	2.0
9.4978	87.8926	0.46	0.10	-30.00	-20.00	7.373	5.09636	7.42954	0.0
9.5078	87.9126	0.46	0.10	-30.00	-20.00	7.373	5.09728	7.43089	2.0
9.5178	87.9326	0.46	0.10	-30.00	-20.00	7.373	5.09820	7.43223	0.0
9.5278	87.9526	0.46	0.10	-30.00	-20.00	7.373	5.09912	7.43358	0.0
9.5378	87.9726	0.46	0.10	-30.00	-20.00	7.373	5.10005	7.43492	0.0
9.5478	87.9926	0.46	0.10	-30.00	-20.00	7.373	5.10097	7.43626	4.0
9.5578	88.0126	0.46	0.10	-30.00	-20.00	7.373	5.10189	7.43761	6.0
9.5678	88.0326	0.46	0.10	-30.00	-20.00	7.373	5.10281	7.43895	0.0
9.5778	88.0526	0.46	0.10	-30.00	-20.00	7.373	5.10373	7.44030	2.0
9.5878	88.0726	0.46	0.10	-30.00	-20.00	7.373	5.10465	7.44164	0.0
9.5978	88.0926	0.46	0.10	-30.00	-20.00	7.373	5.10558	7.44298	2.0
9.6078	88.1126	0.46	0.10	-30.00	-20.00	7.373	5.10650	7.44432	4.0
9.6178	88.1326	0.46	0.10	-30.00	-20.00	7.373	5.10742	7.44567	0.0
9.6278	88.1526	0.46	0.10	-30.00	-20.00	7.373	5.10834	7.44701	0.0
9.6378	88.1726	0.46	0.10	-30.00	-20.00	7.373	5.10926	7.44835	0.0
9.6478	88.1926	0.46	0.10	-30.00	-20.00	7.373	5.11018	7.44969	6.0
9.6578	88.2126	0.46	0.10	-30.00	-20.00	7.373	5.11110	7.45104	4.0
9.6678	88.2326	0.46	0.10	-30.00	-20.00	7.373	5.11202	7.45238	2.0
9.6778	88.2526	0.46	0.10	-30.00	-20.00	7.373	5.11294	7.45372	4.0
9.6878	88.2726	0.46	0.10	-30.00	-20.00	7.373	5.11386	7.45506	2.0
9.6978	88.2926	0.46	0.10	-30.00	-20.00	7.373	5.11478	7.45640	6.0
9.7078	88.3126	0.46	0.10	-30.00	-20.00	7.373	5.11570	7.45774	0.0
9.7178	88.3326	0.46	0.10	-30.00	-20.00	7.373	5.11662	7.45908	0.0
9.7278	88.3526	0.46	0.10	-30.00	-20.00	7.373	5.11754	7.46042	2.0
9.7378	88.3726	0.46	0.10	-30.00	-20.00	7.373	5.11846	7.46176	2.0
9.7478	88.3926	0.46	0.10	-30.00	-20.00	7.373	5.11938	7.46310	4.0
9.7578	88.4126	0.46	0.10	-30.00	-20.00	7.373	5.12030	7.46444	0.0
9.7678	88.4326	0.46	0.10	-30.00	-20.00	7.373	5.12121	7.46578	2.0
9.7778	88.4526	0.46	0.10	-30.00	-20.00	7.373	5.12213	7.46712	2.0
9.7878	88.4726	0.46	0.10	-30.00	-20.00	7.373	5.12305	7.46846	2.0
9.7978	88.4926	0.46	0.10	-30.00	-20.00	7.373	5.12397	7.46980	2.0
9.8078	88.5126	0.46	0.10	-30.00	-20.00	7.373	5.12489	7.47114	4.0
9.8178	88.5326	0.46	0.10	-30.00	-20.00	7.373	5.12581	7.47247	2.0
9.8278	88.5526	0.46	0.10	-30.00	-20.00	7.373	5.12672	7.47381	6.0
9.8378	88.5726	0.46	0.10	-30.00	-20.00	7.373	5.12764	7.47515	0.0
9.8478	88.5926	0.46	0.10	-30.00	-20.00	7.373	5.12856	7.47649	2.0
9.8578	88.6126	0.46	0.10	-30.00	-20.00	7.373	5.12948	7.47782	0.0
9.8678	88.6326	0.46	0.10	-30.00	-20.00	7.373	5.13039	7.47916	0.0
9.8778	88.6526	0.46	0.10	-30.00	-20.00	7.373	5.13131	7.48050	0.0
9.8878	88.6726	0.46	0.10	-30.00	-20.00	7.373	5.13223	7.48183	0.0
9.8978	88.6926	0.46	0.10	-30.00	-20.00	7.373	5.13314	7.48317	0.0
9.9078	88.7126	0.46	0.10	-30.00	-20.00	7.373	5.13406	7.48451	4.0
9.9178	88.7326	0.46	0.10	-30.00	-20.00	7.373	5.13498	7.48584	0.0
9.9278	88.7526	0.46	0.10	-30.00	-20.00	7.373	5.13589	7.48718	2.0
9.9378	88.7726	0.46	0.10	-30.00	-20.00	7.373	5.13681	7.48851	2.0
9.9478	88.7926	0.46	0.10	-30.00	-20.00	7.373	5.13772	7.48985	0.0
9.9578	88.8126	0.46	0.10	-30.00	-20.00	7.373	5.13864	7.49118	0.0
9.9678	88.8326	0.46	0.10	-30.00	-20.00	7.373	5.13956	7.49252	0.0
9.9778	88.8526	0.46	0.10	-30.00	-20.00	7.373	5.14047	7.49385	4.0
9.9878	88.8726	0.46	0.10	-30.00	-20.00	7.373	5.14139	7.49519	2.0
9.9978	88.8926	0.46	0.10	-30.00	-20.00	7.373	5.14230	7.49652	2.0
10.0078	88.9126	0.46	0.10	-30.00	-20.00	7.373	5.14322	7.49785	0.0
10.0178	88.9326	0.46	0.10	-30.00	-20.00	7.373	5.14413	7.49919	4.0
10.0278	88.9526	0.46	0.10	-30.00	-20.00	7.373	5.14505	7.50052	0.0
10.0378	88.9726	0.46	0.10	-30.00	-20.00	7.373	5.14596	7.50185	2.0
10.0478	88.9926	0.46	0.10	-30.00	-20.00	7.373	5.14687	7.50319	0.0
10.0578	89.0126	0.46	0.10	-30.00	-20.00	7.373	5.14779	7.50452	4.0
10.0678	89.0326	0.46	0.10	-30.00	-20.00	7.373	5.14870	7.50585	2.0

8.1078	85.0726	0.46	0.10	-30.00	-20.00	7.373	4.96218	7.23936	0.0
8.1178	85.0926	0.46	0.10	-30.00	-20.00	7.373	4.96313	7.24073	0.0
8.1278	85.1126	0.46	0.10	-30.00	-20.00	7.373	4.96407	7.24211	0.0
8.1378	85.1326	0.46	0.10	-30.00	-20.00	7.373	4.96501	7.24349	2.0
8.1478	85.1526	0.46	0.10	-30.00	-20.00	7.373	4.96596	7.24486	2.0
8.1578	85.1726	0.46	0.10	-30.00	-20.00	7.373	4.96690	7.24624	0.0
8.1678	85.1926	0.46	0.10	-30.00	-20.00	7.373	4.96784	7.24761	0.0
8.1778	85.2126	0.46	0.10	-30.00	-20.00	7.373	4.96879	7.24899	0.0
8.1878	85.2326	0.46	0.10	-30.00	-20.00	7.373	4.96973	7.25037	0.0
8.1978	85.2526	0.46	0.10	-30.00	-20.00	7.373	4.97067	7.25174	2.0
8.2078	85.2726	0.46	0.10	-30.00	-20.00	7.373	4.97161	7.25312	0.0
8.2178	85.2926	0.46	0.10	-30.00	-20.00	7.373	4.97256	7.25449	2.0
8.2278	85.3126	0.46	0.10	-30.00	-20.00	7.373	4.97350	7.25587	2.0
8.2378	85.3326	0.46	0.10	-30.00	-20.00	7.373	4.97444	7.25724	2.0
8.2478	85.3526	0.46	0.10	-30.00	-20.00	7.373	4.97538	7.25861	10.0
8.2578	85.3726	0.46	0.10	-30.00	-20.00	7.373	4.97632	7.25999	2.0
8.2678	85.3926	0.46	0.10	-30.00	-20.00	7.373	4.97727	7.26136	0.0
8.2778	85.4126	0.46	0.10	-30.00	-20.00	7.373	4.97821	7.26274	0.0
8.2878	85.4326	0.46	0.10	-30.00	-20.00	7.373	4.97915	7.26411	2.0
8.2978	85.4526	0.46	0.10	-30.00	-20.00	7.373	4.98009	7.26548	4.0
8.3078	85.4726	0.46	0.10	-30.00	-20.00	7.373	4.98103	7.26685	2.0
8.3178	85.4926	0.46	0.10	-30.00	-20.00	7.373	4.98197	7.26823	0.0
8.3278	85.5126	0.46	0.10	-30.00	-20.00	7.373	4.98291	7.26960	0.0
8.3378	85.5326	0.46	0.10	-30.00	-20.00	7.373	4.98385	7.27097	0.0
8.3478	85.5526	0.46	0.10	-30.00	-20.00	7.373	4.98479	7.27234	0.0
8.3578	85.5726	0.46	0.10	-30.00	-20.00	7.373	4.98573	7.27372	2.0
8.3678	85.5926	0.46	0.10	-30.00	-20.00	7.373	4.98667	7.27509	6.0
8.3778	85.6126	0.46	0.10	-30.00	-20.00	7.373	4.98761	7.27646	2.0
8.3878	85.6326	0.46	0.10	-30.00	-20.00	7.373	4.98855	7.27783	2.0
8.3978	85.6526	0.46	0.10	-30.00	-20.00	7.373	4.98949	7.27920	10.0
8.4078	85.6726	0.46	0.10	-30.00	-20.00	7.373	4.99043	7.28057	2.0
8.4178	85.6926	0.46	0.10	-30.00	-20.00	7.373	4.99137	7.28194	0.0
8.4278	85.7126	0.46	0.10	-30.00	-20.00	7.373	4.99231	7.28331	0.0
8.4378	85.7326	0.46	0.10	-30.00	-20.00	7.373	4.99325	7.28468	2.0
8.4478	85.7526	0.46	0.10	-30.00	-20.00	7.373	4.99419	7.28605	4.0
8.4578	85.7726	0.46	0.10	-30.00	-20.00	7.373	4.99513	7.28742	2.0
8.4678	85.7926	0.46	0.10	-30.00	-20.00	7.373	4.99607	7.28879	2.0
8.4778	85.8126	0.46	0.10	-30.00	-20.00	7.373	4.99700	7.29016	2.0
8.4878	85.8326	0.46	0.10	-30.00	-20.00	7.373	4.99794	7.29153	4.0
8.4978	85.8526	0.46	0.10	-30.00	-20.00	7.373	4.99888	7.29290	6.0
8.5078	85.8726	0.46	0.10	-30.00	-20.00	7.373	4.99982	7.29426	2.0
8.5178	85.8926	0.46	0.10	-30.00	-20.00	7.373	5.00076	7.29563	0.0
8.5278	85.9126	0.46	0.10	-30.00	-20.00	7.373	5.00169	7.29700	2.0
8.5378	85.9326	0.46	0.10	-30.00	-20.00	7.373	5.00263	7.29837	2.0
8.5478	85.9526	0.46	0.10	-30.00	-20.00	7.373	5.00357	7.29974	6.0
8.5578	85.9726	0.46	0.10	-30.00	-20.00	7.373	5.00451	7.30110	4.0
8.5678	85.9926	0.46	0.10	-30.00	-20.00	7.373	5.00544	7.30247	2.0
8.5778	86.0126	0.46	0.10	-30.00	-20.00	7.373	5.00638	7.30384	0.0
8.5878	86.0326	0.46	0.10	-30.00	-20.00	7.373	5.00732	7.30520	0.0
8.5978	86.0526	0.46	0.10	-30.00	-20.00	7.373	5.00825	7.30657	2.0
8.6078	86.0726	0.46	0.10	-30.00	-20.00	7.373	5.00919	7.30794	2.0
8.6178	86.0926	0.46	0.10	-30.00	-20.00	7.373	5.01013	7.30930	2.0
8.6278	86.1126	0.46	0.10	-30.00	-20.00	7.373	5.01106	7.31067	2.0
8.6378	86.1326	0.46	0.10	-30.00	-20.00	7.373	5.01200	7.31203	0.0
8.6478	86.1526	0.46	0.10	-30.00	-20.00	7.373	5.01293	7.31340	0.0
8.6578	86.1726	0.46	0.10	-30.00	-20.00	7.373	5.01387	7.31476	0.0
8.6678	86.1926	0.46	0.10	-30.00	-20.00	7.373	5.01480	7.31613	2.0
8.6778	86.2126	0.46	0.10	-30.00	-20.00	7.373	5.01574	7.31749	2.0
8.6878	86.2326	0.46	0.10	-30.00	-20.00	7.373	5.01668	7.31886	0.0
8.6978	86.2526	0.46	0.10	-30.00	-20.00	7.373	5.01761	7.32022	4.0
8.7078	86.2726	0.46	0.10	-30.00	-20.00	7.373	5.01855	7.32158	2.0
8.7178	86.2926	0.46	0.10	-30.00	-20.00	7.373	5.01948	7.32295	0.0
8.7278	86.3126	0.46	0.10	-30.00	-20.00	7.373	5.02041	7.32431	0.0
8.7378	86.3326	0.46	0.10	-30.00	-20.00	7.373	5.02135	7.32568	4.0
8.7478	86.3526	0.46	0.10	-30.00	-20.00	7.373	5.02228	7.32704	2.0
8.7578	86.3726	0.46	0.10	-30.00	-20.00	7.373	5.02322	7.32840	2.0
8.7678	86.3926	0.46	0.10	-30.00	-20.00	7.373	5.02415	7.32976	2.0
8.7778	86.4126	0.46	0.10	-30.00	-20.00	7.373	5.02509	7.33113	4.0
8.7878	86.4326	0.46	0.10	-30.00	-20.00	7.373	5.02602	7.33249	4.0
8.7978	86.4526	0.46	0.10	-30.00	-20.00	7.373	5.02695	7.33385	0.0
8.8078	86.4726	0.46	0.10	-30.00	-20.00	7.373	5.02789	7.33521	2.0
8.8178	86.4926	0.46	0.10	-30.00	-20.00	7.373	5.02882	7.33657	0.0
8.8278	86.5126	0.46	0.10	-30.00	-20.00	7.373	5.02975	7.33793	0.0
8.8378	86.5326	0.46	0.10	-30.00	-20.00	7.373	5.03068	7.33930	0.0
8.8478	86.5526	0.46	0.10	-30.00	-20.00	7.373	5.03162	7.34066	4.0
8.8578	86.5726	0.46	0.10	-30.00	-20.00	7.373	5.03255	7.34202	2.0
8.8678	86.5926	0.46	0.10	-30.00	-20.00	7.373	5.03348	7.34338	0.0
8.8778	86.6126	0.46	0.10	-30.00	-20.00	7.373	5.03441	7.34474	2.0
8.8878	86.6326	0.46	0.10	-30.00	-20.00	7.373	5.03535	7.34610	0.0
8.8978	86.6526	0.46	0.10	-30.00	-20.00	7.373	5.03628	7.34746	0.0
8.9078	86.6726	0.46	0.10	-30.00	-20.00	7.373	5.03721	7.34882	2.0
8.9178	86.6926	0.46	0.10	-30.00	-20.00	7.373	5.03814	7.35018	2.0
8.9278	86.7126	0.46	0.10	-30.00	-20.00	7.373	5.03907	7.35153	0.0
8.9378	86.7326	0.46	0.10	-30.00	-20.00	7.373	5.04001	7.35289	2.0
8.9478	86.7526	0.46	0.10	-30.00	-20.00	7.373	5.04094	7.35425	2.0
8.9578	86.7726	0.46	0.10	-30.00	-20.00	7.373	5.04187	7.35561	0.0
8.9678	86.7926	0.46	0.10	-30.00	-20.00	7.373	5.04280	7.35697	2.0
8.9778	86.8126	0.46	0.10	-30.00	-20.00	7.373	5.04373	7.35833	0.0
8.9878	86.8326	0.46	0.10	-30.00	-20.00	7.373	5.04466	7.35968	0.0
8.9978	86.8526	0.46	0.10	-30.00	-20.00	7.373	5.04559	7.36104	0.0
9.0078	86.8726	0.46	0.10	-30.00	-20.00	7.373	5.04652	7.36240	2.0
9.0178	86.8926	0.46	0.10	-30.00	-20.00	7.373	5.04745	7.36376	0.0
9.0278	86.9126	0.46	0.10	-30.00	-20.00	7.373	5.04838	7.36511	0.0
9.0378	86.9326	0.46	0.10	-30.00	-20.00	7.373	5.04931	7.36647	2.0
9.0478	86.9526	0.46	0.10	-30.00	-20.00	7.373	5.05024	7.36783	2.0
9.0578	86.9726	0.46	0.10	-30.00	-20.00	7.373	5.05117	7.36918	0.0
9.0678	86.9926	0.46	0.10	-30.00	-20.00	7.373	5.05210	7.37054	2.0
9.0778	87.0126	0.46	0.10	-30.00	-20.00	7.373	5.05303	7.37189	0.0
9.0878	87.0326	0.46	0.10	-30.00	-20.00	7.373	5.05396	7.37325	2.0
9.0978	87.0526	0.46	0.10	-30.00	-20.00	7.373	5.05489	7.37460	4.0
9.1078	87.0726	0.46	0.10	-30.00	-20.00	7.373	5.05582	7.37596	2.0
9.1178	87.0926	0.46	0.10	-30.00	-20.00	7.373	5.05674	7.37731	2.0
9.1278	87.1126	0.46	0.10	-30.00	-20.00	7.373	5.05767	7.37867	6.0
9.1378	87.1326	0.46	0.10	-30.00	-20.00	7.373	5.05860	7.38002	0.0
9.1478	87.1526	0.46	0.10	-30.00	-20.00	7.373	5.05953	7.38138	0.0
9.1578	87.1726	0.46	0.10	-30.00	-20.00	7.373	5.06046	7.38273	0.0
9.1678	87.1926	0.46	0.10	-30.00	-20.00	7.373	5.06138	7.38408	8.0
9.1778	87.2126	0.46	0.10	-30.00	-20.00	7.373	5.06231	7.38544	2.0
9.1878	87.2326	0.46	0.10	-30.00	-20.00	7.373	5.06324	7.38679	2.0
9.1978	87.2526	0.46	0.10	-30.00	-20.00	7.373	5.06417	7.38814	2.0
9.2078	87.2726	0.46	0.10	-30.00	-20.00	7.373	5.06509	7.38950	4.0
9.2178	87.2926	0.46	0.10	-30.00	-20.00	7.373	5.06602	7.39085	2.0
9.2278	87.3126	0.46	0.10	-30.00	-20.00	7.373	5.06695	7.39220	2.0
9.2378	87.3326	0.46	0.10	-30.00	-20.00	7.373	5.06788	7.39355	2.0
9.2478	87.3526	0.46	0.10	-30.00	-20.00	7.373	5.06880	7.39490	2.0
9.2578	87.3726	0.46	0.10	-30.00	-20.00	7.373	5.06973	7.39626	0.0
9.2678	87.3926	0.46	0.10	-30.00	-20.00	7.373	5.07065	7.39761	2.0
9.2778	87.4126	0.46	0.10	-30.00	-20.00	7.373	5.07158	7.39896	2.0
9.2878	87.4326	0.46	0.10	-30.00	-20.00	7.373	5.07251	7.40031	4.0
9.2978	87.4526	0.46	0.10	-30.00	-20.00	7.373	5.07343	7.40166	4.0
9.3078	87.4726	0.46	0.10	-30.00	-20.00	7.373	5.07436	7.40301	2.0
9.3178	87.4926	0.46	0.10	-30.00	-20.00	7.373	5.07528	7.40436	2.0
9.3278	87.5126	0.46	0.10	-30.00	-20.00	7.373	5.07621	7.40571	2.0
9.3378	87.5326	0.46	0.10	-30.00	-20.00	7.373	5.07713	7.40706	2.0
9.3478	87.5526	0.46	0.10	-30.00	-20.00	7.373	5.07806	7.40841	2.0
9.3578	87.5726	0.46	0.10	-30.00	-20.00	7.373	5.07898	7.40976	2.0
9.3678	87.5926	0.46	0.10	-30.00	-20.00	7.373	5.07991	7.41111	0.0
9.3778	87.6126	0.46	0.10	-30.00	-20.00	7.373	5.08083	7.41246	6.0
9.3878	87.6326	0.46	0.10	-30.00	-20.00	7.373	5.08176	7.41381	4.0
9.3978	87.6526	0.46	0.10	-30.00	-20.00	7.373	5.08268	7.41516	0.0
9.4078	87.6726	0.46	0.10	-30.00	-20.00	7.373	5.08361	7.41650	2.0
9.4178	87.6926	0.46	0.10	-30.00	-20.00	7.373	5.08453	7.41785	4.0
9.4278	87.7126	0.46	0.10	-30.00	-20.00	7.373	5.08545	7.41920	0.0
9.4378	87.7326	0.46	0.10	-30.00	-20.00	7.373	5.08638	7.42055	2.0
9.4478	87.7526	0.46	0.10	-30.00	-20.00	7.373	5.08730	7.42189	0.0
9.4578	87.7726	0.46	0.10	-30.00	-20.00	7.373	5.08822	7.42324	0.0
9.4678	87.7926	0.46	0.10	-30.00	-20.00	7.373	5.08915	7.42459	0.0
9.4778	87.8126	0.46	0.10	-30.00	-20.00	7.373	5.09007	7.42593	0.0
9.4878	87.8326	0.46	0.10	-30.00	-20.00	7.373	5.09099	7.42728	0.0
9.4978	87.8526	0.46	0.10	-30.00	-20.00	7.373	5.09192	7.42863	0.0
9.5078	87.8726	0.46	0.10	-30.00	-20.00	7.373	5.09284	7.42997	2.0
9.5178	87.8926	0.46	0.10	-30.00	-20.00	7.373	5.09376	7.43132	2.0
9.5278	87.9126	0.46	0.10	-30.00	-20.00	7.373	5.09468	7.43266	2.0
9.5378	87.9326	0.46	0.10	-30.00	-20.00	7.373	5.09561	7.43401	4.0
9.5478	87.9526	0.46	0.10	-30.00	-20.00	7.373	5.09653	7.43535	0.0
9.5578	87.9726	0.46	0.10	-30.00	-20.00	7.373	5.09745	7.43670	2.0
9.5678	87.9926	0.46	0.10	-30.00	-20.00	7.373	5.09837	7.43804	4.0
9.5778	88.0126	0.46	0.10	-30.00	-20.00	7.373	5.09929	7.43939	4.0
9.5878	88.0326	0.46	0.10	-30.00	-20.00	7.373	5.10021	7.44073	2.0
9.5978	88.0526	0.46	0.10	-30.00	-20.00	7.373	5.10114	7.44208	0.0
9.6078	88.0726	0.46	0.10	-30.00	-20.00	7.373	5.10206	7.44342	2.0
9.6178	88.0926	0.46	0.10	-30.00	-20.00	7.373	5.10298	7.44476	0.0
9.6278	88.1126	0.46	0.10	-30.00	-20.00	7.373	5.10390	7.44611	2.0
9.6378	88.1326	0.46	0.10	-30.00	-20.00	7.373	5.10482	7.44745	2.0
9.6478	88.1526	0.46	0.10	-30.00	-20.00	7.373	5.10574	7.44879	0.0
9.6578	88.1726	0.46	0.10	-30.00	-20.00	7.373	5.10666	7.45014	0.0
9.6678	88.1926	0.46	0.10	-30.00	-20.00	7.373	5.10758	7.45148	0.0
9.6778	88.2126	0.46	0.10	-30.00	-20.00	7.373	5.10850	7.45282	0.0
9.6878	88.2326	0.46	0.10	-30.00	-20.00	7.373	5.10942	7.45416	0.0
9.6978	88.2526	0.46	0.10	-30.00	-20.00	7.373	5.11034	7.45550	0.0
9.7078	88.2726	0.46	0.10	-30.00	-20.00	7.373	5.11126	7.45684	4.0
9.7178	88.2926	0.46	0.10	-30.00	-20.00	7.373	5.11218	7.45819	0.0
9.7278	88.3126	0.46	0.10	-30.00	-20.00	7.373	5.11310	7.45953	2.0
9.7378	88.3326	0.46	0.10	-30.00	-20.00	7.373	5.11402	7.46087	2.0
9.7478	88.3526	0.46	0.10	-30.00	-20.00	7.373	5.11493	7.46221	4.0
9.7578	88.3726	0.46	0.10	-30.00	-20.00	7.373	5.11585	7.46355	4.0
9.7678	88.3926	0.46	0.10	-30.00	-20.00	7.373	5.11677	7.46489	0.0
9.7778	88.4126	0.46	0.10	-30.00	-20.00	7.373	5.11769	7.46623	2.0
9.7878	88.4326	0.46	0.10	-30.00	-20.00	7.373	5.11861	7.46757	0.0
9.7978	88.4526	0.46	0.10	-30.00	-20.00	7.373	5.11953	7.46891	2.0
9.8078	88.4726	0.46	0.10	-30.00	-20.00	7.373	5.12044	7.47025	0.0
9.8178	88.4926	0.46	0.10	-30.00	-20.00	7.373	5.12136	7.47159	2.0
9.8278	88.5126	0.46	0.10	-30.00	-20.00	7.373	5.12228	7.47292	0.0
9.8378	88.5326	0.46	0.10	-30.00	-20.00	7.373	5.12320	7.47426	0.0
9.8478	88.5526	0.46	0.10	-30.00	-20.00	7.373	5.12411	7.47560	0.0
9.8578	88.5726	0.46	0.10	-30.00	-20.00	7.373	5.12503	7.47694	0.0
9.8678	88.5926	0.46	0.10	-30.00	-20.00	7.373	5.12595	7.47828	2.0
9.8778	88.6126	0.46	0.10	-30.00	-20.00	7.373	5.12687	7.47961	0.0
9.8878	88.6326	0.46	0.10	-30.00	-20.00	7.373	5.12778	7.48095	2.0
9.8978	88.6526	0.46	0.10	-30.00	-20.00	7.373	5.12870	7.48229	2.0
9.9078	88.6726	0.46	0.10	-30.00	-20.00	7.373	5.12961	7.48363	2.0
9.9178	88.6926	0.46	0.10	-30.00	-20.00	7.373	5.13053	7.48496	0.0
9.9278	88.7126	0.46	0.10	-30.00	-20.00	7.373	5.13145	7.48630	4.0
9.9378	88.7326	0.46	0.10	-30.00	-20.00	7.373	5.13236	7.48763	0.0
9.9478	88.7526	0.46	0.10	-30.00	-20.00	7.373	5.13328	7.48897	0.0
9.9578	88.7726	0.46	0.10	-30.00	-20.00	7.373	5.13419	7.49031	2.0
9.9678	88.7926	0.46	0.10	-30.00	-20.00	7.373	5.13511	7.49164	2.0
9.9778	88.8126	0.46	0.10	-30.00	-20.00	7.373	5.13602	7.49298	0.0
9.9878	88.8326	0.46	0.10	-30.00	-20.00	7.373	5.13694	7.49431	0.0
9.9978	88.8526	0.46	0.10	-30.00	-20.00	7.373	5.13785	7.49565	0.0
10.0078	88.8726	0.46	0.10	-30.00	-20.00	7.373	5.13877	7.49698	4.0
10.0178	88.8926	0.46	0.10	-30.00	-20.00	7.373	5.13968	7.49832	2.0
10.0278	88.9126	0.46	0.10	-30.00	-20.00	7.373	5.14060	7.49965	2.0
10.0378	88.9326	0.46	0.10	-30.00	-20.00	7.373	5.14151	7.50098	0.0
10.0478	88.9526	0.46	0.10	-30.00	-20.00	7.373	5.14243	7.50232	0.0
10.0578	88.9726	0.46	0.10	-30.00	-20.00	7.373	5.14334	7.50365	0.0
10.0678	88.9926	0.46	0.10	-30.00	-20.00	7.373	5.14425	7.50498	0.0
10.0778	89.0126	0.46	0.10	-30.00	-20.00	7.373	5.14517	7.50632	0.0
10.0878	89.0326	0.46	0.10	-30.00	-20.00	7.373	5.14608	7.50765	0.0