File: Data/113xx/2.0deg-2.0deg-rsm-3h10mins_11354-annealed_224.dat
# filename: /home/lepecvd/lepecvd/11354/xray/2.0deg-2.0deg-rsm-3h10m_11354-E4_224.xrdml
# reflection: ('2', '2', '4')
# type: Area measurement
# x-axis: Omega_2Theta
# y-axis: Omega
#
# Omega	2Theta	Phi  	Chi   	X    	Y    	Z    	q_para	q_perp	Intensity
# [deg]	[deg] 	[deg]	[deg] 	[mm] 	[mm] 	[mm] 	[nm-1]	[nm-1]	[counts/s]
6.7951	85.0742	-0.10	0.10	0.00	-22.75	7.333	5.12690	7.12381	2.0
6.8051	85.0942	-0.10	0.10	0.00	-22.75	7.333	5.12788	7.12517	0.0
6.8151	85.1142	-0.10	0.10	0.00	-22.75	7.333	5.12885	7.12652	4.0
6.8251	85.1342	-0.10	0.10	0.00	-22.75	7.333	5.12983	7.12788	0.0
6.8351	85.1542	-0.10	0.10	0.00	-22.75	7.333	5.13080	7.12923	0.0
6.8451	85.1742	-0.10	0.10	0.00	-22.75	7.333	5.13178	7.13059	0.0
6.8551	85.1942	-0.10	0.10	0.00	-22.75	7.333	5.13275	7.13194	2.0
6.8651	85.2142	-0.10	0.10	0.00	-22.75	7.333	5.13373	7.13330	0.0
6.8751	85.2342	-0.10	0.10	0.00	-22.75	7.333	5.13470	7.13465	0.0
6.8851	85.2542	-0.10	0.10	0.00	-22.75	7.333	5.13567	7.13600	2.0
6.8951	85.2742	-0.10	0.10	0.00	-22.75	7.333	5.13665	7.13735	2.0
6.9051	85.2942	-0.10	0.10	0.00	-22.75	7.333	5.13762	7.13871	2.0
6.9151	85.3142	-0.10	0.10	0.00	-22.75	7.333	5.13859	7.14006	0.0
6.9251	85.3342	-0.10	0.10	0.00	-22.75	7.333	5.13957	7.14141	0.0
6.9351	85.3542	-0.10	0.10	0.00	-22.75	7.333	5.14054	7.14276	0.0
6.9451	85.3742	-0.10	0.10	0.00	-22.75	7.333	5.14151	7.14412	2.0
6.9551	85.3942	-0.10	0.10	0.00	-22.75	7.333	5.14249	7.14547	4.0
6.9651	85.4142	-0.10	0.10	0.00	-22.75	7.333	5.14346	7.14682	2.0
6.9751	85.4342	-0.10	0.10	0.00	-22.75	7.333	5.14443	7.14817	0.0
6.9851	85.4542	-0.10	0.10	0.00	-22.75	7.333	5.14540	7.14952	2.0
6.9951	85.4742	-0.10	0.10	0.00	-22.75	7.333	5.14638	7.15087	2.0
7.0051	85.4942	-0.10	0.10	0.00	-22.75	7.333	5.14735	7.15222	0.0
7.0151	85.5142	-0.10	0.10	0.00	-22.75	7.333	5.14832	7.15357	0.0
7.0251	85.5342	-0.10	0.10	0.00	-22.75	7.333	5.14929	7.15492	0.0
7.0351	85.5542	-0.10	0.10	0.00	-22.75	7.333	5.15026	7.15627	0.0
7.0451	85.5742	-0.10	0.10	0.00	-22.75	7.333	5.15124	7.15762	2.0
7.0551	85.5942	-0.10	0.10	0.00	-22.75	7.333	5.15221	7.15897	2.0
7.0651	85.6142	-0.10	0.10	0.00	-22.75	7.333	5.15318	7.16032	2.0
7.0751	85.6342	-0.10	0.10	0.00	-22.75	7.333	5.15415	7.16167	2.0
7.0851	85.6542	-0.10	0.10	0.00	-22.75	7.333	5.15512	7.16302	0.0
7.0951	85.6742	-0.10	0.10	0.00	-22.75	7.333	5.15609	7.16437	0.0
7.1051	85.6942	-0.10	0.10	0.00	-22.75	7.333	5.15706	7.16572	0.0
7.1151	85.7142	-0.10	0.10	0.00	-22.75	7.333	5.15803	7.16707	2.0
7.1251	85.7342	-0.10	0.10	0.00	-22.75	7.333	5.15900	7.16841	2.0
7.1351	85.7542	-0.10	0.10	0.00	-22.75	7.333	5.15997	7.16976	2.0
7.1451	85.7742	-0.10	0.10	0.00	-22.75	7.333	5.16094	7.17111	0.0
7.1551	85.7942	-0.10	0.10	0.00	-22.75	7.333	5.16191	7.17246	0.0
7.1651	85.8142	-0.10	0.10	0.00	-22.75	7.333	5.16288	7.17380	0.0
7.1751	85.8342	-0.10	0.10	0.00	-22.75	7.333	5.16385	7.17515	2.0
7.1851	85.8542	-0.10	0.10	0.00	-22.75	7.333	5.16482	7.17650	10.0
7.1951	85.8742	-0.10	0.10	0.00	-22.75	7.333	5.16579	7.17784	2.0
7.2051	85.8942	-0.10	0.10	0.00	-22.75	7.333	5.16676	7.17919	4.0
7.2151	85.9142	-0.10	0.10	0.00	-22.75	7.333	5.16773	7.18054	2.0
7.2251	85.9342	-0.10	0.10	0.00	-22.75	7.333	5.16869	7.18188	4.0
7.2351	85.9542	-0.10	0.10	0.00	-22.75	7.333	5.16966	7.18323	8.0
7.2451	85.9742	-0.10	0.10	0.00	-22.75	7.333	5.17063	7.18457	2.0
7.2551	85.9942	-0.10	0.10	0.00	-22.75	7.333	5.17160	7.18592	2.0
7.2651	86.0142	-0.10	0.10	0.00	-22.75	7.333	5.17257	7.18726	0.0
7.2751	86.0342	-0.10	0.10	0.00	-22.75	7.333	5.17353	7.18861	4.0
7.2851	86.0542	-0.10	0.10	0.00	-22.75	7.333	5.17450	7.18995	0.0
7.2951	86.0742	-0.10	0.10	0.00	-22.75	7.333	5.17547	7.19130	2.0
7.3051	86.0942	-0.10	0.10	0.00	-22.75	7.333	5.17644	7.19264	2.0
7.3151	86.1142	-0.10	0.10	0.00	-22.75	7.333	5.17740	7.19399	4.0
7.3251	86.1342	-0.10	0.10	0.00	-22.75	7.333	5.17837	7.19533	2.0
7.3351	86.1542	-0.10	0.10	0.00	-22.75	7.333	5.17934	7.19667	0.0
7.3451	86.1742	-0.10	0.10	0.00	-22.75	7.333	5.18030	7.19802	0.0
7.3551	86.1942	-0.10	0.10	0.00	-22.75	7.333	5.18127	7.19936	0.0
7.3651	86.2142	-0.10	0.10	0.00	-22.75	7.333	5.18224	7.20070	2.0
7.3751	86.2342	-0.10	0.10	0.00	-22.75	7.333	5.18320	7.20204	2.0
7.3851	86.2542	-0.10	0.10	0.00	-22.75	7.333	5.18417	7.20339	2.0
7.3951	86.2742	-0.10	0.10	0.00	-22.75	7.333	5.18514	7.20473	2.0
7.4051	86.2942	-0.10	0.10	0.00	-22.75	7.333	5.18610	7.20607	0.0
7.4151	86.3142	-0.10	0.10	0.00	-22.75	7.333	5.18707	7.20741	4.0
7.4251	86.3342	-0.10	0.10	0.00	-22.75	7.333	5.18803	7.20875	0.0
7.4351	86.3542	-0.10	0.10	0.00	-22.75	7.333	5.18900	7.21010	0.0
7.4451	86.3742	-0.10	0.10	0.00	-22.75	7.333	5.18996	7.21144	4.0
7.4551	86.3942	-0.10	0.10	0.00	-22.75	7.333	5.19093	7.21278	4.0
7.4651	86.4142	-0.10	0.10	0.00	-22.75	7.333	5.19189	7.21412	2.0
7.4751	86.4342	-0.10	0.10	0.00	-22.75	7.333	5.19286	7.21546	4.0
7.4851	86.4542	-0.10	0.10	0.00	-22.75	7.333	5.19382	7.21680	10.0
7.4951	86.4742	-0.10	0.10	0.00	-22.75	7.333	5.19479	7.21814	6.0
7.5051	86.4942	-0.10	0.10	0.00	-22.75	7.333	5.19575	7.21948	2.0
7.5151	86.5142	-0.10	0.10	0.00	-22.75	7.333	5.19671	7.22082	0.0
7.5251	86.5342	-0.10	0.10	0.00	-22.75	7.333	5.19768	7.22216	0.0
7.5351	86.5542	-0.10	0.10	0.00	-22.75	7.333	5.19864	7.22350	2.0
7.5451	86.5742	-0.10	0.10	0.00	-22.75	7.333	5.19961	7.22483	2.0
7.5551	86.5942	-0.10	0.10	0.00	-22.75	7.333	5.20057	7.22617	2.0
7.5651	86.6142	-0.10	0.10	0.00	-22.75	7.333	5.20153	7.22751	0.0
7.5751	86.6342	-0.10	0.10	0.00	-22.75	7.333	5.20249	7.22885	0.0
7.5851	86.6542	-0.10	0.10	0.00	-22.75	7.333	5.20346	7.23019	8.0
7.5951	86.6742	-0.10	0.10	0.00	-22.75	7.333	5.20442	7.23153	0.0
7.6051	86.6942	-0.10	0.10	0.00	-22.75	7.333	5.20538	7.23286	0.0
7.6151	86.7142	-0.10	0.10	0.00	-22.75	7.333	5.20635	7.23420	4.0
7.6251	86.7342	-0.10	0.10	0.00	-22.75	7.333	5.20731	7.23554	2.0
7.6351	86.7542	-0.10	0.10	0.00	-22.75	7.333	5.20827	7.23687	0.0
7.6451	86.7742	-0.10	0.10	0.00	-22.75	7.333	5.20923	7.23821	8.0
7.6551	86.7942	-0.10	0.10	0.00	-22.75	7.333	5.21019	7.23955	2.0
7.6651	86.8142	-0.10	0.10	0.00	-22.75	7.333	5.21116	7.24088	0.0
7.6751	86.8342	-0.10	0.10	0.00	-22.75	7.333	5.21212	7.24222	2.0
7.6851	86.8542	-0.10	0.10	0.00	-22.75	7.333	5.21308	7.24355	0.0
7.6951	86.8742	-0.10	0.10	0.00	-22.75	7.333	5.21404	7.24489	2.0
7.7051	86.8942	-0.10	0.10	0.00	-22.75	7.333	5.21500	7.24623	0.0
7.7151	86.9142	-0.10	0.10	0.00	-22.75	7.333	5.21596	7.24756	0.0
7.7251	86.9342	-0.10	0.10	0.00	-22.75	7.333	5.21692	7.24890	0.0
7.7351	86.9542	-0.10	0.10	0.00	-22.75	7.333	5.21788	7.25023	2.0
7.7451	86.9742	-0.10	0.10	0.00	-22.75	7.333	5.21884	7.25156	2.0
7.7551	86.9942	-0.10	0.10	0.00	-22.75	7.333	5.21980	7.25290	0.0
7.7651	87.0142	-0.10	0.10	0.00	-22.75	7.333	5.22076	7.25423	2.0
7.7751	87.0342	-0.10	0.10	0.00	-22.75	7.333	5.22172	7.25557	0.0
7.7851	87.0542	-0.10	0.10	0.00	-22.75	7.333	5.22268	7.25690	0.0
7.7951	87.0742	-0.10	0.10	0.00	-22.75	7.333	5.22364	7.25823	4.0
7.8051	87.0942	-0.10	0.10	0.00	-22.75	7.333	5.22460	7.25957	0.0
7.8151	87.1142	-0.10	0.10	0.00	-22.75	7.333	5.22556	7.26090	0.0
7.8251	87.1342	-0.10	0.10	0.00	-22.75	7.333	5.22652	7.26223	2.0
7.8351	87.1542	-0.10	0.10	0.00	-22.75	7.333	5.22748	7.26356	0.0
7.8451	87.1742	-0.10	0.10	0.00	-22.75	7.333	5.22844	7.26490	0.0
7.8551	87.1942	-0.10	0.10	0.00	-22.75	7.333	5.22940	7.26623	0.0
7.8651	87.2142	-0.10	0.10	0.00	-22.75	7.333	5.23035	7.26756	2.0
7.8751	87.2342	-0.10	0.10	0.00	-22.75	7.333	5.23131	7.26889	0.0
7.8851	87.2542	-0.10	0.10	0.00	-22.75	7.333	5.23227	7.27022	2.0
7.8951	87.2742	-0.10	0.10	0.00	-22.75	7.333	5.23323	7.27155	0.0
7.9051	87.2942	-0.10	0.10	0.00	-22.75	7.333	5.23419	7.27289	0.0
7.9151	87.3142	-0.10	0.10	0.00	-22.75	7.333	5.23514	7.27422	0.0
7.9251	87.3342	-0.10	0.10	0.00	-22.75	7.333	5.23610	7.27555	0.0
7.9351	87.3542	-0.10	0.10	0.00	-22.75	7.333	5.23706	7.27688	0.0
7.9451	87.3742	-0.10	0.10	0.00	-22.75	7.333	5.23802	7.27821	2.0
7.9551	87.3942	-0.10	0.10	0.00	-22.75	7.333	5.23897	7.27954	4.0
7.9651	87.4142	-0.10	0.10	0.00	-22.75	7.333	5.23993	7.28087	2.0
7.9751	87.4342	-0.10	0.10	0.00	-22.75	7.333	5.24089	7.28220	2.0
7.9851	87.4542	-0.10	0.10	0.00	-22.75	7.333	5.24184	7.28352	2.0
7.9951	87.4742	-0.10	0.10	0.00	-22.75	7.333	5.24280	7.28485	2.0
8.0051	87.4942	-0.10	0.10	0.00	-22.75	7.333	5.24376	7.28618	2.0
8.0151	87.5142	-0.10	0.10	0.00	-22.75	7.333	5.24471	7.28751	0.0
8.0251	87.5342	-0.10	0.10	0.00	-22.75	7.333	5.24567	7.28884	2.0
8.0351	87.5542	-0.10	0.10	0.00	-22.75	7.333	5.24662	7.29017	0.0
8.0451	87.5742	-0.10	0.10	0.00	-22.75	7.333	5.24758	7.29149	0.0
8.0551	87.5942	-0.10	0.10	0.00	-22.75	7.333	5.24853	7.29282	2.0
8.0651	87.6142	-0.10	0.10	0.00	-22.75	7.333	5.24949	7.29415	0.0
8.0751	87.6342	-0.10	0.10	0.00	-22.75	7.333	5.25044	7.29548	6.0
8.0851	87.6542	-0.10	0.10	0.00	-22.75	7.333	5.25140	7.29680	2.0
8.0951	87.6742	-0.10	0.10	0.00	-22.75	7.333	5.25235	7.29813	2.0
8.1051	87.6942	-0.10	0.10	0.00	-22.75	7.333	5.25331	7.29946	0.0
8.1151	87.7142	-0.10	0.10	0.00	-22.75	7.333	5.25426	7.30078	2.0
8.1251	87.7342	-0.10	0.10	0.00	-22.75	7.333	5.25522	7.30211	4.0
8.1351	87.7542	-0.10	0.10	0.00	-22.75	7.333	5.25617	7.30343	4.0
8.1451	87.7742	-0.10	0.10	0.00	-22.75	7.333	5.25713	7.30476	2.0
8.1551	87.7942	-0.10	0.10	0.00	-22.75	7.333	5.25808	7.30608	0.0
8.1651	87.8142	-0.10	0.10	0.00	-22.75	7.333	5.25903	7.30741	2.0
8.1751	87.8342	-0.10	0.10	0.00	-22.75	7.333	5.25999	7.30873	2.0
8.1851	87.8542	-0.10	0.10	0.00	-22.75	7.333	5.26094	7.31006	2.0
8.1951	87.8742	-0.10	0.10	0.00	-22.75	7.333	5.26189	7.31138	0.0
8.2051	87.8942	-0.10	0.10	0.00	-22.75	7.333	5.26285	7.31271	0.0
8.2151	87.9142	-0.10	0.10	0.00	-22.75	7.333	5.26380	7.31403	0.0
8.2251	87.9342	-0.10	0.10	0.00	-22.75	7.333	5.26475	7.31536	4.0
8.2351	87.9542	-0.10	0.10	0.00	-22.75	7.333	5.26570	7.31668	0.0
8.2451	87.9742	-0.10	0.10	0.00	-22.75	7.333	5.26666	7.31800	4.0
8.2551	87.9942	-0.10	0.10	0.00	-22.75	7.333	5.26761	7.31933	2.0
8.2651	88.0142	-0.10	0.10	0.00	-22.75	7.333	5.26856	7.32065	0.0
8.2751	88.0342	-0.10	0.10	0.00	-22.75	7.333	5.26951	7.32197	2.0
8.2851	88.0542	-0.10	0.10	0.00	-22.75	7.333	5.27046	7.32329	0.0
8.2951	88.0742	-0.10	0.10	0.00	-22.75	7.333	5.27142	7.32462	0.0
8.3051	88.0942	-0.10	0.10	0.00	-22.75	7.333	5.27237	7.32594	0.0
8.3151	88.1142	-0.10	0.10	0.00	-22.75	7.333	5.27332	7.32726	0.0
8.3251	88.1342	-0.10	0.10	0.00	-22.75	7.333	5.27427	7.32858	0.0
8.3351	88.1542	-0.10	0.10	0.00	-22.75	7.333	5.27522	7.32990	0.0
8.3451	88.1742	-0.10	0.10	0.00	-22.75	7.333	5.27617	7.33122	0.0
8.3551	88.1942	-0.10	0.10	0.00	-22.75	7.333	5.27712	7.33254	4.0
8.3651	88.2142	-0.10	0.10	0.00	-22.75	7.333	5.27807	7.33387	2.0
8.3751	88.2342	-0.10	0.10	0.00	-22.75	7.333	5.27902	7.33519	0.0
8.3851	88.2542	-0.10	0.10	0.00	-22.75	7.333	5.27997	7.33651	4.0
8.3951	88.2742	-0.10	0.10	0.00	-22.75	7.333	5.28092	7.33783	0.0
8.4051	88.2942	-0.10	0.10	0.00	-22.75	7.333	5.28187	7.33915	0.0
8.4151	88.3142	-0.10	0.10	0.00	-22.75	7.333	5.28282	7.34047	10.0
8.4251	88.3342	-0.10	0.10	0.00	-22.75	7.333	5.28377	7.34178	0.0
8.4351	88.3542	-0.10	0.10	0.00	-22.75	7.333	5.28472	7.34310	2.0
8.4451	88.3742	-0.10	0.10	0.00	-22.75	7.333	5.28567	7.34442	0.0
8.4551	88.3942	-0.10	0.10	0.00	-22.75	7.333	5.28662	7.34574	2.0
8.4651	88.4142	-0.10	0.10	0.00	-22.75	7.333	5.28757	7.34706	0.0
8.4751	88.4342	-0.10	0.10	0.00	-22.75	7.333	5.28852	7.34838	0.0
8.4851	88.4542	-0.10	0.10	0.00	-22.75	7.333	5.28947	7.34970	0.0
8.4951	88.4742	-0.10	0.10	0.00	-22.75	7.333	5.29041	7.35101	2.0
8.5051	88.4942	-0.10	0.10	0.00	-22.75	7.333	5.29136	7.35233	2.0
8.5151	88.5142	-0.10	0.10	0.00	-22.75	7.333	5.29231	7.35365	2.0
8.5251	88.5342	-0.10	0.10	0.00	-22.75	7.333	5.29326	7.35497	0.0
8.5351	88.5542	-0.10	0.10	0.00	-22.75	7.333	5.29421	7.35628	0.0
8.5451	88.5742	-0.10	0.10	0.00	-22.75	7.333	5.29515	7.35760	0.0
8.5551	88.5942	-0.10	0.10	0.00	-22.75	7.333	5.29610	7.35892	0.0
8.5651	88.6142	-0.10	0.10	0.00	-22.75	7.333	5.29705	7.36023	2.0
8.5751	88.6342	-0.10	0.10	0.00	-22.75	7.333	5.29800	7.36155	0.0
8.5851	88.6542	-0.10	0.10	0.00	-22.75	7.333	5.29894	7.36286	4.0
8.5951	88.6742	-0.10	0.10	0.00	-22.75	7.333	5.29989	7.36418	0.0
8.6051	88.6942	-0.10	0.10	0.00	-22.75	7.333	5.30084	7.36549	0.0
8.6151	88.7142	-0.10	0.10	0.00	-22.75	7.333	5.30178	7.36681	0.0
8.6251	88.7342	-0.10	0.10	0.00	-22.75	7.333	5.30273	7.36812	4.0
8.6351	88.7542	-0.10	0.10	0.00	-22.75	7.333	5.30367	7.36944	0.0
8.6451	88.7742	-0.10	0.10	0.00	-22.75	7.333	5.30462	7.37075	2.0
8.6551	88.7942	-0.10	0.10	0.00	-22.75	7.333	5.30557	7.37207	0.0
8.6651	88.8142	-0.10	0.10	0.00	-22.75	7.333	5.30651	7.37338	2.0
8.6751	88.8342	-0.10	0.10	0.00	-22.75	7.333	5.30746	7.37469	0.0
8.6851	88.8542	-0.10	0.10	0.00	-22.75	7.333	5.30840	7.37601	4.0
8.6951	88.8742	-0.10	0.10	0.00	-22.75	7.333	5.30935	7.37732	0.0
8.7051	88.8942	-0.10	0.10	0.00	-22.75	7.333	5.31029	7.37863	2.0
8.7151	88.9142	-0.10	0.10	0.00	-22.75	7.333	5.31124	7.37995	6.0
8.7251	88.9342	-0.10	0.10	0.00	-22.75	7.333	5.31218	7.38126	0.0
8.7351	88.9542	-0.10	0.10	0.00	-22.75	7.333	5.31313	7.38257	2.0
8.7451	88.9742	-0.10	0.10	0.00	-22.75	7.333	5.31407	7.38388	0.0
8.7551	88.9942	-0.10	0.10	0.00	-22.75	7.333	5.31501	7.38520	2.0
8.7651	89.0142	-0.10	0.10	0.00	-22.75	7.333	5.31596	7.38651	0.0
8.7751	89.0342	-0.10	0.10	0.00	-22.75	7.333	5.31690	7.38782	0.0

6.8151	85.0742	-0.10	0.10	0.00	-22.75	7.333	5.12442	7.12560	2.0
6.8251	85.0942	-0.10	0.10	0.00	-22.75	7.333	5.12539	7.12696	4.0
6.8351	85.1142	-0.10	0.10	0.00	-22.75	7.333	5.12636	7.12831	0.0
6.8451	85.1342	-0.10	0.10	0.00	-22.75	7.333	5.12734	7.12967	2.0
6.8551	85.1542	-0.10	0.10	0.00	-22.75	7.333	5.12831	7.13102	0.0
6.8651	85.1742	-0.10	0.10	0.00	-22.75	7.333	5.12929	7.13238	4.0
6.8751	85.1942	-0.10	0.10	0.00	-22.75	7.333	5.13026	7.13373	2.0
6.8851	85.2142	-0.10	0.10	0.00	-22.75	7.333	5.13124	7.13509	2.0
6.8951	85.2342	-0.10	0.10	0.00	-22.75	7.333	5.13221	7.13644	2.0
6.9051	85.2542	-0.10	0.10	0.00	-22.75	7.333	5.13318	7.13779	2.0
6.9151	85.2742	-0.10	0.10	0.00	-22.75	7.333	5.13416	7.13915	0.0
6.9251	85.2942	-0.10	0.10	0.00	-22.75	7.333	5.13513	7.14050	0.0
6.9351	85.3142	-0.10	0.10	0.00	-22.75	7.333	5.13610	7.14185	2.0
6.9451	85.3342	-0.10	0.10	0.00	-22.75	7.333	5.13707	7.14321	0.0
6.9551	85.3542	-0.10	0.10	0.00	-22.75	7.333	5.13805	7.14456	2.0
6.9651	85.3742	-0.10	0.10	0.00	-22.75	7.333	5.13902	7.14591	0.0
6.9751	85.3942	-0.10	0.10	0.00	-22.75	7.333	5.13999	7.14726	0.0
6.9851	85.4142	-0.10	0.10	0.00	-22.75	7.333	5.14096	7.14862	0.0
6.9951	85.4342	-0.10	0.10	0.00	-22.75	7.333	5.14194	7.14997	4.0
7.0051	85.4542	-0.10	0.10	0.00	-22.75	7.333	5.14291	7.15132	0.0
7.0151	85.4742	-0.10	0.10	0.00	-22.75	7.333	5.14388	7.15267	2.0
7.0251	85.4942	-0.10	0.10	0.00	-22.75	7.333	5.14485	7.15402	0.0
7.0351	85.5142	-0.10	0.10	0.00	-22.75	7.333	5.14582	7.15537	0.0
7.0451	85.5342	-0.10	0.10	0.00	-22.75	7.333	5.14679	7.15672	0.0
7.0551	85.5542	-0.10	0.10	0.00	-22.75	7.333	5.14777	7.15807	4.0
7.0651	85.5742	-0.10	0.10	0.00	-22.75	7.333	5.14874	7.15942	2.0
7.0751	85.5942	-0.10	0.10	0.00	-22.75	7.333	5.14971	7.16077	0.0
7.0851	85.6142	-0.10	0.10	0.00	-22.75	7.333	5.15068	7.16212	0.0
7.0951	85.6342	-0.10	0.10	0.00	-22.75	7.333	5.15165	7.16347	2.0
7.1051	85.6542	-0.10	0.10	0.00	-22.75	7.333	5.15262	7.16482	2.0
7.1151	85.6742	-0.10	0.10	0.00	-22.75	7.333	5.15359	7.16617	0.0
7.1251	85.6942	-0.10	0.10	0.00	-22.75	7.333	5.15456	7.16752	2.0
7.1351	85.7142	-0.10	0.10	0.00	-22.75	7.333	5.15553	7.16887	0.0
7.1451	85.7342	-0.10	0.10	0.00	-22.75	7.333	5.15650	7.17022	2.0
7.1551	85.7542	-0.10	0.10	0.00	-22.75	7.333	5.15747	7.17156	0.0
7.1651	85.7742	-0.10	0.10	0.00	-22.75	7.333	5.15844	7.17291	0.0
7.1751	85.7942	-0.10	0.10	0.00	-22.75	7.333	5.15941	7.17426	0.0
7.1851	85.8142	-0.10	0.10	0.00	-22.75	7.333	5.16038	7.17561	0.0
7.1951	85.8342	-0.10	0.10	0.00	-22.75	7.333	5.16134	7.17695	0.0
7.2051	85.8542	-0.10	0.10	0.00	-22.75	7.333	5.16231	7.17830	0.0
7.2151	85.8742	-0.10	0.10	0.00	-22.75	7.333	5.16328	7.17965	2.0
7.2251	85.8942	-0.10	0.10	0.00	-22.75	7.333	5.16425	7.18099	2.0
7.2351	85.9142	-0.10	0.10	0.00	-22.75	7.333	5.16522	7.18234	2.0
7.2451	85.9342	-0.10	0.10	0.00	-22.75	7.333	5.16619	7.18369	0.0
7.2551	85.9542	-0.10	0.10	0.00	-22.75	7.333	5.16715	7.18503	4.0
7.2651	85.9742	-0.10	0.10	0.00	-22.75	7.333	5.16812	7.18638	0.0
7.2751	85.9942	-0.10	0.10	0.00	-22.75	7.333	5.16909	7.18772	2.0
7.2851	86.0142	-0.10	0.10	0.00	-22.75	7.333	5.17006	7.18907	0.0
7.2951	86.0342	-0.10	0.10	0.00	-22.75	7.333	5.17102	7.19041	0.0
7.3051	86.0542	-0.10	0.10	0.00	-22.75	7.333	5.17199	7.19176	0.0
7.3151	86.0742	-0.10	0.10	0.00	-22.75	7.333	5.17296	7.19310	2.0
7.3251	86.0942	-0.10	0.10	0.00	-22.75	7.333	5.17393	7.19445	2.0
7.3351	86.1142	-0.10	0.10	0.00	-22.75	7.333	5.17489	7.19579	0.0
7.3451	86.1342	-0.10	0.10	0.00	-22.75	7.333	5.17586	7.19714	0.0
7.3551	86.1542	-0.10	0.10	0.00	-22.75	7.333	5.17683	7.19848	2.0
7.3651	86.1742	-0.10	0.10	0.00	-22.75	7.333	5.17779	7.19982	0.0
7.3751	86.1942	-0.10	0.10	0.00	-22.75	7.333	5.17876	7.20117	2.0
7.3851	86.2142	-0.10	0.10	0.00	-22.75	7.333	5.17972	7.20251	2.0
7.3951	86.2342	-0.10	0.10	0.00	-22.75	7.333	5.18069	7.20385	0.0
7.4051	86.2542	-0.10	0.10	0.00	-22.75	7.333	5.18165	7.20520	2.0
7.4151	86.2742	-0.10	0.10	0.00	-22.75	7.333	5.18262	7.20654	2.0
7.4251	86.2942	-0.10	0.10	0.00	-22.75	7.333	5.18359	7.20788	0.0
7.4351	86.3142	-0.10	0.10	0.00	-22.75	7.333	5.18455	7.20922	0.0
7.4451	86.3342	-0.10	0.10	0.00	-22.75	7.333	5.18552	7.21056	0.0
7.4551	86.3542	-0.10	0.10	0.00	-22.75	7.333	5.18648	7.21191	2.0
7.4651	86.3742	-0.10	0.10	0.00	-22.75	7.333	5.18745	7.21325	0.0
7.4751	86.3942	-0.10	0.10	0.00	-22.75	7.333	5.18841	7.21459	2.0
7.4851	86.4142	-0.10	0.10	0.00	-22.75	7.333	5.18937	7.21593	2.0
7.4951	86.4342	-0.10	0.10	0.00	-22.75	7.333	5.19034	7.21727	2.0
7.5051	86.4542	-0.10	0.10	0.00	-22.75	7.333	5.19130	7.21861	2.0
7.5151	86.4742	-0.10	0.10	0.00	-22.75	7.333	5.19227	7.21995	2.0
7.5251	86.4942	-0.10	0.10	0.00	-22.75	7.333	5.19323	7.22129	2.0
7.5351	86.5142	-0.10	0.10	0.00	-22.75	7.333	5.19419	7.22263	2.0
7.5451	86.5342	-0.10	0.10	0.00	-22.75	7.333	5.19516	7.22397	4.0
7.5551	86.5542	-0.10	0.10	0.00	-22.75	7.333	5.19612	7.22531	2.0
7.5651	86.5742	-0.10	0.10	0.00	-22.75	7.333	5.19708	7.22665	4.0
7.5751	86.5942	-0.10	0.10	0.00	-22.75	7.333	5.19805	7.22799	2.0
7.5851	86.6142	-0.10	0.10	0.00	-22.75	7.333	5.19901	7.22933	2.0
7.5951	86.6342	-0.10	0.10	0.00	-22.75	7.333	5.19997	7.23067	2.0
7.6051	86.6542	-0.10	0.10	0.00	-22.75	7.333	5.20093	7.23200	2.0
7.6151	86.6742	-0.10	0.10	0.00	-22.75	7.333	5.20190	7.23334	4.0
7.6251	86.6942	-0.10	0.10	0.00	-22.75	7.333	5.20286	7.23468	2.0
7.6351	86.7142	-0.10	0.10	0.00	-22.75	7.333	5.20382	7.23602	2.0
7.6451	86.7342	-0.10	0.10	0.00	-22.75	7.333	5.20478	7.23735	2.0
7.6551	86.7542	-0.10	0.10	0.00	-22.75	7.333	5.20574	7.23869	0.0
7.6651	86.7742	-0.10	0.10	0.00	-22.75	7.333	5.20670	7.24003	0.0
7.6751	86.7942	-0.10	0.10	0.00	-22.75	7.333	5.20767	7.24137	0.0
7.6851	86.8142	-0.10	0.10	0.00	-22.75	7.333	5.20863	7.24270	4.0
7.6951	86.8342	-0.10	0.10	0.00	-22.75	7.333	5.20959	7.24404	0.0
7.7051	86.8542	-0.10	0.10	0.00	-22.75	7.333	5.21055	7.24537	0.0
7.7151	86.8742	-0.10	0.10	0.00	-22.75	7.333	5.21151	7.24671	0.0
7.7251	86.8942	-0.10	0.10	0.00	-22.75	7.333	5.21247	7.24805	0.0
7.7351	86.9142	-0.10	0.10	0.00	-22.75	7.333	5.21343	7.24938	2.0
7.7451	86.9342	-0.10	0.10	0.00	-22.75	7.333	5.21439	7.25072	6.0
7.7551	86.9542	-0.10	0.10	0.00	-22.75	7.333	5.21535	7.25205	4.0
7.7651	86.9742	-0.10	0.10	0.00	-22.75	7.333	5.21631	7.25339	0.0
7.7751	86.9942	-0.10	0.10	0.00	-22.75	7.333	5.21727	7.25472	0.0
7.7851	87.0142	-0.10	0.10	0.00	-22.75	7.333	5.21823	7.25605	4.0
7.7951	87.0342	-0.10	0.10	0.00	-22.75	7.333	5.21919	7.25739	4.0
7.8051	87.0542	-0.10	0.10	0.00	-22.75	7.333	5.22015	7.25872	0.0
7.8151	87.0742	-0.10	0.10	0.00	-22.75	7.333	5.22111	7.26006	0.0
7.8251	87.0942	-0.10	0.10	0.00	-22.75	7.333	5.22207	7.26139	0.0
7.8351	87.1142	-0.10	0.10	0.00	-22.75	7.333	5.22303	7.26272	2.0
7.8451	87.1342	-0.10	0.10	0.00	-22.75	7.333	5.22398	7.26406	2.0
7.8551	87.1542	-0.10	0.10	0.00	-22.75	7.333	5.22494	7.26539	0.0
7.8651	87.1742	-0.10	0.10	0.00	-22.75	7.333	5.22590	7.26672	0.0
7.8751	87.1942	-0.10	0.10	0.00	-22.75	7.333	5.22686	7.26805	0.0
7.8851	87.2142	-0.10	0.10	0.00	-22.75	7.333	5.22782	7.26939	2.0
7.8951	87.2342	-0.10	0.10	0.00	-22.75	7.333	5.22877	7.27072	2.0
7.9051	87.2542	-0.10	0.10	0.00	-22.75	7.333	5.22973	7.27205	0.0
7.9151	87.2742	-0.10	0.10	0.00	-22.75	7.333	5.23069	7.27338	4.0
7.9251	87.2942	-0.10	0.10	0.00	-22.75	7.333	5.23165	7.27471	0.0
7.9351	87.3142	-0.10	0.10	0.00	-22.75	7.333	5.23260	7.27604	2.0
7.9451	87.3342	-0.10	0.10	0.00	-22.75	7.333	5.23356	7.27737	0.0
7.9551	87.3542	-0.10	0.10	0.00	-22.75	7.333	5.23452	7.27870	4.0
7.9651	87.3742	-0.10	0.10	0.00	-22.75	7.333	5.23548	7.28003	0.0
7.9751	87.3942	-0.10	0.10	0.00	-22.75	7.333	5.23643	7.28136	6.0
7.9851	87.4142	-0.10	0.10	0.00	-22.75	7.333	5.23739	7.28269	0.0
7.9951	87.4342	-0.10	0.10	0.00	-22.75	7.333	5.23834	7.28402	2.0
8.0051	87.4542	-0.10	0.10	0.00	-22.75	7.333	5.23930	7.28535	0.0
8.0151	87.4742	-0.10	0.10	0.00	-22.75	7.333	5.24026	7.28668	2.0
8.0251	87.4942	-0.10	0.10	0.00	-22.75	7.333	5.24121	7.28801	0.0
8.0351	87.5142	-0.10	0.10	0.00	-22.75	7.333	5.24217	7.28934	0.0
8.0451	87.5342	-0.10	0.10	0.00	-22.75	7.333	5.24312	7.29067	4.0
8.0551	87.5542	-0.10	0.10	0.00	-22.75	7.333	5.24408	7.29200	2.0
8.0651	87.5742	-0.10	0.10	0.00	-22.75	7.333	5.24503	7.29333	2.0
8.0751	87.5942	-0.10	0.10	0.00	-22.75	7.333	5.24599	7.29465	2.0
8.0851	87.6142	-0.10	0.10	0.00	-22.75	7.333	5.24694	7.29598	0.0
8.0951	87.6342	-0.10	0.10	0.00	-22.75	7.333	5.24790	7.29731	6.0
8.1051	87.6542	-0.10	0.10	0.00	-22.75	7.333	5.24885	7.29864	0.0
8.1151	87.6742	-0.10	0.10	0.00	-22.75	7.333	5.24981	7.29996	2.0
8.1251	87.6942	-0.10	0.10	0.00	-22.75	7.333	5.25076	7.30129	4.0
8.1351	87.7142	-0.10	0.10	0.00	-22.75	7.333	5.25171	7.30262	0.0
8.1451	87.7342	-0.10	0.10	0.00	-22.75	7.333	5.25267	7.30394	0.0
8.1551	87.7542	-0.10	0.10	0.00	-22.75	7.333	5.25362	7.30527	0.0
8.1651	87.7742	-0.10	0.10	0.00	-22.75	7.333	5.25458	7.30659	0.0
8.1751	87.7942	-0.10	0.10	0.00	-22.75	7.333	5.25553	7.30792	2.0
8.1851	87.8142	-0.10	0.10	0.00	-22.75	7.333	5.25648	7.30925	0.0
8.1951	87.8342	-0.10	0.10	0.00	-22.75	7.333	5.25744	7.31057	0.0
8.2051	87.8542	-0.10	0.10	0.00	-22.75	7.333	5.25839	7.31190	0.0
8.2151	87.8742	-0.10	0.10	0.00	-22.75	7.333	5.25934	7.31322	4.0
8.2251	87.8942	-0.10	0.10	0.00	-22.75	7.333	5.26029	7.31454	0.0
8.2351	87.9142	-0.10	0.10	0.00	-22.75	7.333	5.26125	7.31587	0.0
8.2451	87.9342	-0.10	0.10	0.00	-22.75	7.333	5.26220	7.31719	0.0
8.2551	87.9542	-0.10	0.10	0.00	-22.75	7.333	5.26315	7.31852	0.0
8.2651	87.9742	-0.10	0.10	0.00	-22.75	7.333	5.26410	7.31984	2.0
8.2751	87.9942	-0.10	0.10	0.00	-22.75	7.333	5.26505	7.32116	6.0
8.2851	88.0142	-0.10	0.10	0.00	-22.75	7.333	5.26601	7.32249	0.0
8.2951	88.0342	-0.10	0.10	0.00	-22.75	7.333	5.26696	7.32381	0.0
8.3051	88.0542	-0.10	0.10	0.00	-22.75	7.333	5.26791	7.32513	4.0
8.3151	88.0742	-0.10	0.10	0.00	-22.75	7.333	5.26886	7.32646	0.0
8.3251	88.0942	-0.10	0.10	0.00	-22.75	7.333	5.26981	7.32778	0.0
8.3351	88.1142	-0.10	0.10	0.00	-22.75	7.333	5.27076	7.32910	0.0
8.3451	88.1342	-0.10	0.10	0.00	-22.75	7.333	5.27171	7.33042	0.0
8.3551	88.1542	-0.10	0.10	0.00	-22.75	7.333	5.27266	7.33174	0.0
8.3651	88.1742	-0.10	0.10	0.00	-22.75	7.333	5.27361	7.33307	2.0
8.3751	88.1942	-0.10	0.10	0.00	-22.75	7.333	5.27456	7.33439	4.0
8.3851	88.2142	-0.10	0.10	0.00	-22.75	7.333	5.27551	7.33571	0.0
8.3951	88.2342	-0.10	0.10	0.00	-22.75	7.333	5.27646	7.33703	0.0
8.4051	88.2542	-0.10	0.10	0.00	-22.75	7.333	5.27741	7.33835	0.0
8.4151	88.2742	-0.10	0.10	0.00	-22.75	7.333	5.27836	7.33967	0.0
8.4251	88.2942	-0.10	0.10	0.00	-22.75	7.333	5.27931	7.34099	0.0
8.4351	88.3142	-0.10	0.10	0.00	-22.75	7.333	5.28026	7.34231	0.0
8.4451	88.3342	-0.10	0.10	0.00	-22.75	7.333	5.28121	7.34363	0.0
8.4551	88.3542	-0.10	0.10	0.00	-22.75	7.333	5.28216	7.34495	4.0
8.4651	88.3742	-0.10	0.10	0.00	-22.75	7.333	5.28311	7.34627	0.0
8.4751	88.3942	-0.10	0.10	0.00	-22.75	7.333	5.28406	7.34759	0.0
8.4851	88.4142	-0.10	0.10	0.00	-22.75	7.333	5.28500	7.34890	2.0
8.4951	88.4342	-0.10	0.10	0.00	-22.75	7.333	5.28595	7.35022	2.0
8.5051	88.4542	-0.10	0.10	0.00	-22.75	7.333	5.28690	7.35154	4.0
8.5151	88.4742	-0.10	0.10	0.00	-22.75	7.333	5.28785	7.35286	0.0
8.5251	88.4942	-0.10	0.10	0.00	-22.75	7.333	5.28880	7.35418	0.0
8.5351	88.5142	-0.10	0.10	0.00	-22.75	7.333	5.28974	7.35550	0.0
8.5451	88.5342	-0.10	0.10	0.00	-22.75	7.333	5.29069	7.35681	0.0
8.5551	88.5542	-0.10	0.10	0.00	-22.75	7.333	5.29164	7.35813	0.0
8.5651	88.5742	-0.10	0.10	0.00	-22.75	7.333	5.29258	7.35945	0.0
8.5751	88.5942	-0.10	0.10	0.00	-22.75	7.333	5.29353	7.36076	8.0
8.5851	88.6142	-0.10	0.10	0.00	-22.75	7.333	5.29448	7.36208	0.0
8.5951	88.6342	-0.10	0.10	0.00	-22.75	7.333	5.29543	7.36340	2.0
8.6051	88.6542	-0.10	0.10	0.00	-22.75	7.333	5.29637	7.36471	0.0
8.6151	88.6742	-0.10	0.10	0.00	-22.75	7.333	5.29732	7.36603	2.0
8.6251	88.6942	-0.10	0.10	0.00	-22.75	7.333	5.29826	7.36734	0.0
8.6351	88.7142	-0.10	0.10	0.00	-22.75	7.333	5.29921	7.36866	0.0
8.6451	88.7342	-0.10	0.10	0.00	-22.75	7.333	5.30016	7.36997	0.0
8.6551	88.7542	-0.10	0.10	0.00	-22.75	7.333	5.30110	7.37129	0.0
8.6651	88.7742	-0.10	0.10	0.00	-22.75	7.333	5.30205	7.37260	0.0
8.6751	88.7942	-0.10	0.10	0.00	-22.75	7.333	5.30299	7.37392	0.0
8.6851	88.8142	-0.10	0.10	0.00	-22.75	7.333	5.30394	7.37523	2.0
8.6951	88.8342	-0.10	0.10	0.00	-22.75	7.333	5.30488	7.37655	2.0
8.7051	88.8542	-0.10	0.10	0.00	-22.75	7.333	5.30583	7.37786	4.0
8.7151	88.8742	-0.10	0.10	0.00	-22.75	7.333	5.30677	7.37917	2.0
8.7251	88.8942	-0.10	0.10	0.00	-22.75	7.333	5.30772	7.38049	0.0
8.7351	88.9142	-0.10	0.10	0.00	-22.75	7.333	5.30866	7.38180	2.0
8.7451	88.9342	-0.10	0.10	0.00	-22.75	7.333	5.30960	7.38311	2.0
8.7551	88.9542	-0.10	0.10	0.00	-22.75	7.333	5.31055	7.38443	2.0
8.7651	88.9742	-0.10	0.10	0.00	-22.75	7.333	5.31149	7.38574	0.0
8.7751	88.9942	-0.10	0.10	0.00	-22.75	7.333	5.31244	7.38705	2.0
8.7851	89.0142	-0.10	0.10	0.00	-22.75	7.333	5.31338	7.38836	0.0
8.7951	89.0342	-0.10	0.10	0.00	-22.75	7.333	5.31432	7.38967	0.0

6.8351	85.0742	-0.10	0.10	0.00	-22.75	7.333	5.12193	7.12739	0.0
6.8451	85.0942	-0.10	0.10	0.00	-22.75	7.333	5.12290	7.12875	0.0
6.8551	85.1142	-0.10	0.10	0.00	-22.75	7.333	5.12388	7.13010	4.0
6.8651	85.1342	-0.10	0.10	0.00	-22.75	7.333	5.12485	7.13146	0.0
6.8751	85.1542	-0.10	0.10	0.00	-22.75	7.333	5.12582	7.13281	0.0
6.8851	85.1742	-0.10	0.10	0.00	-22.75	7.333	5.12680	7.13417	2.0
6.8951	85.1942	-0.10	0.10	0.00	-22.75	7.333	5.12777	7.13552	0.0
6.9051	85.2142	-0.10	0.10	0.00	-22.75	7.333	5.12874	7.13688	2.0
6.9151	85.2342	-0.10	0.10	0.00	-22.75	7.333	5.12972	7.13823	0.0
6.9251	85.2542	-0.10	0.10	0.00	-22.75	7.333	5.13069	7.13959	0.0
6.9351	85.2742	-0.10	0.10	0.00	-22.75	7.333	5.13166	7.14094	0.0
6.9451	85.2942	-0.10	0.10	0.00	-22.75	7.333	5.13264	7.14229	2.0
6.9551	85.3142	-0.10	0.10	0.00	-22.75	7.333	5.13361	7.14365	0.0
6.9651	85.3342	-0.10	0.10	0.00	-22.75	7.333	5.13458	7.14500	2.0
6.9751	85.3542	-0.10	0.10	0.00	-22.75	7.333	5.13555	7.14635	0.0
6.9851	85.3742	-0.10	0.10	0.00	-22.75	7.333	5.13653	7.14770	2.0
6.9951	85.3942	-0.10	0.10	0.00	-22.75	7.333	5.13750	7.14906	2.0
7.0051	85.4142	-0.10	0.10	0.00	-22.75	7.333	5.13847	7.15041	2.0
7.0151	85.4342	-0.10	0.10	0.00	-22.75	7.333	5.13944	7.15176	0.0
7.0251	85.4542	-0.10	0.10	0.00	-22.75	7.333	5.14041	7.15311	0.0
7.0351	85.4742	-0.10	0.10	0.00	-22.75	7.333	5.14138	7.15446	0.0
7.0451	85.4942	-0.10	0.10	0.00	-22.75	7.333	5.14235	7.15582	0.0
7.0551	85.5142	-0.10	0.10	0.00	-22.75	7.333	5.14332	7.15717	0.0
7.0651	85.5342	-0.10	0.10	0.00	-22.75	7.333	5.14430	7.15852	2.0
7.0751	85.5542	-0.10	0.10	0.00	-22.75	7.333	5.14527	7.15987	0.0
7.0851	85.5742	-0.10	0.10	0.00	-22.75	7.333	5.14624	7.16122	0.0
7.0951	85.5942	-0.10	0.10	0.00	-22.75	7.333	5.14721	7.16257	2.0
7.1051	85.6142	-0.10	0.10	0.00	-22.75	7.333	5.14818	7.16392	0.0
7.1151	85.6342	-0.10	0.10	0.00	-22.75	7.333	5.14915	7.16527	0.0
7.1251	85.6542	-0.10	0.10	0.00	-22.75	7.333	5.15012	7.16662	2.0
7.1351	85.6742	-0.10	0.10	0.00	-22.75	7.333	5.15109	7.16797	2.0
7.1451	85.6942	-0.10	0.10	0.00	-22.75	7.333	5.15206	7.16932	0.0
7.1551	85.7142	-0.10	0.10	0.00	-22.75	7.333	5.15303	7.17067	0.0
7.1651	85.7342	-0.10	0.10	0.00	-22.75	7.333	5.15399	7.17201	2.0
7.1751	85.7542	-0.10	0.10	0.00	-22.75	7.333	5.15496	7.17336	0.0
7.1851	85.7742	-0.10	0.10	0.00	-22.75	7.333	5.15593	7.17471	0.0
7.1951	85.7942	-0.10	0.10	0.00	-22.75	7.333	5.15690	7.17606	2.0
7.2051	85.8142	-0.10	0.10	0.00	-22.75	7.333	5.15787	7.17741	4.0
7.2151	85.8342	-0.10	0.10	0.00	-22.75	7.333	5.15884	7.17875	6.0
7.2251	85.8542	-0.10	0.10	0.00	-22.75	7.333	5.15981	7.18010	8.0
7.2351	85.8742	-0.10	0.10	0.00	-22.75	7.333	5.16078	7.18145	0.0
7.2451	85.8942	-0.10	0.10	0.00	-22.75	7.333	5.16174	7.18280	2.0
7.2551	85.9142	-0.10	0.10	0.00	-22.75	7.333	5.16271	7.18414	0.0
7.2651	85.9342	-0.10	0.10	0.00	-22.75	7.333	5.16368	7.18549	0.0
7.2751	85.9542	-0.10	0.10	0.00	-22.75	7.333	5.16465	7.18684	2.0
7.2851	85.9742	-0.10	0.10	0.00	-22.75	7.333	5.16561	7.18818	0.0
7.2951	85.9942	-0.10	0.10	0.00	-22.75	7.333	5.16658	7.18953	0.0
7.3051	86.0142	-0.10	0.10	0.00	-22.75	7.333	5.16755	7.19087	2.0
7.3151	86.0342	-0.10	0.10	0.00	-22.75	7.333	5.16851	7.19222	0.0
7.3251	86.0542	-0.10	0.10	0.00	-22.75	7.333	5.16948	7.19356	2.0
7.3351	86.0742	-0.10	0.10	0.00	-22.75	7.333	5.17045	7.19491	0.0
7.3451	86.0942	-0.10	0.10	0.00	-22.75	7.333	5.17141	7.19625	2.0
7.3551	86.1142	-0.10	0.10	0.00	-22.75	7.333	5.17238	7.19760	0.0
7.3651	86.1342	-0.10	0.10	0.00	-22.75	7.333	5.17335	7.19894	2.0
7.3751	86.1542	-0.10	0.10	0.00	-22.75	7.333	5.17431	7.20029	2.0
7.3851	86.1742	-0.10	0.10	0.00	-22.75	7.333	5.17528	7.20163	2.0
7.3951	86.1942	-0.10	0.10	0.00	-22.75	7.333	5.17624	7.20297	2.0
7.4051	86.2142	-0.10	0.10	0.00	-22.75	7.333	5.17721	7.20432	6.0
7.4151	86.2342	-0.10	0.10	0.00	-22.75	7.333	5.17817	7.20566	2.0
7.4251	86.2542	-0.10	0.10	0.00	-22.75	7.333	5.17914	7.20700	2.0
7.4351	86.2742	-0.10	0.10	0.00	-22.75	7.333	5.18010	7.20835	0.0
7.4451	86.2942	-0.10	0.10	0.00	-22.75	7.333	5.18107	7.20969	0.0
7.4551	86.3142	-0.10	0.10	0.00	-22.75	7.333	5.18203	7.21103	0.0
7.4651	86.3342	-0.10	0.10	0.00	-22.75	7.333	5.18300	7.21237	2.0
7.4751	86.3542	-0.10	0.10	0.00	-22.75	7.333	5.18396	7.21372	2.0
7.4851	86.3742	-0.10	0.10	0.00	-22.75	7.333	5.18493	7.21506	2.0
7.4951	86.3942	-0.10	0.10	0.00	-22.75	7.333	5.18589	7.21640	2.0
7.5051	86.4142	-0.10	0.10	0.00	-22.75	7.333	5.18685	7.21774	0.0
7.5151	86.4342	-0.10	0.10	0.00	-22.75	7.333	5.18782	7.21908	0.0
7.5251	86.4542	-0.10	0.10	0.00	-22.75	7.333	5.18878	7.22042	2.0
7.5351	86.4742	-0.10	0.10	0.00	-22.75	7.333	5.18975	7.22176	2.0
7.5451	86.4942	-0.10	0.10	0.00	-22.75	7.333	5.19071	7.22310	4.0
7.5551	86.5142	-0.10	0.10	0.00	-22.75	7.333	5.19167	7.22444	0.0
7.5651	86.5342	-0.10	0.10	0.00	-22.75	7.333	5.19263	7.22578	4.0
7.5751	86.5542	-0.10	0.10	0.00	-22.75	7.333	5.19360	7.22712	2.0
7.5851	86.5742	-0.10	0.10	0.00	-22.75	7.333	5.19456	7.22846	0.0
7.5951	86.5942	-0.10	0.10	0.00	-22.75	7.333	5.19552	7.22980	0.0
7.6051	86.6142	-0.10	0.10	0.00	-22.75	7.333	5.19648	7.23114	0.0
7.6151	86.6342	-0.10	0.10	0.00	-22.75	7.333	5.19745	7.23248	2.0
7.6251	86.6542	-0.10	0.10	0.00	-22.75	7.333	5.19841	7.23382	0.0
7.6351	86.6742	-0.10	0.10	0.00	-22.75	7.333	5.19937	7.23516	0.0
7.6451	86.6942	-0.10	0.10	0.00	-22.75	7.333	5.20033	7.23649	4.0
7.6551	86.7142	-0.10	0.10	0.00	-22.75	7.333	5.20129	7.23783	0.0
7.6651	86.7342	-0.10	0.10	0.00	-22.75	7.333	5.20226	7.23917	2.0
7.6751	86.7542	-0.10	0.10	0.00	-22.75	7.333	5.20322	7.24051	2.0
7.6851	86.7742	-0.10	0.10	0.00	-22.75	7.333	5.20418	7.24185	2.0
7.6951	86.7942	-0.10	0.10	0.00	-22.75	7.333	5.20514	7.24318	0.0
7.7051	86.8142	-0.10	0.10	0.00	-22.75	7.333	5.20610	7.24452	2.0
7.7151	86.8342	-0.10	0.10	0.00	-22.75	7.333	5.20706	7.24586	2.0
7.7251	86.8542	-0.10	0.10	0.00	-22.75	7.333	5.20802	7.24719	2.0
7.7351	86.8742	-0.10	0.10	0.00	-22.75	7.333	5.20898	7.24853	2.0
7.7451	86.8942	-0.10	0.10	0.00	-22.75	7.333	5.20994	7.24986	0.0
7.7551	86.9142	-0.10	0.10	0.00	-22.75	7.333	5.21090	7.25120	2.0
7.7651	86.9342	-0.10	0.10	0.00	-22.75	7.333	5.21186	7.25254	2.0
7.7751	86.9542	-0.10	0.10	0.00	-22.75	7.333	5.21282	7.25387	6.0
7.7851	86.9742	-0.10	0.10	0.00	-22.75	7.333	5.21378	7.25521	2.0
7.7951	86.9942	-0.10	0.10	0.00	-22.75	7.333	5.21474	7.25654	2.0
7.8051	87.0142	-0.10	0.10	0.00	-22.75	7.333	5.21570	7.25788	6.0
7.8151	87.0342	-0.10	0.10	0.00	-22.75	7.333	5.21666	7.25921	2.0
7.8251	87.0542	-0.10	0.10	0.00	-22.75	7.333	5.21761	7.26054	2.0
7.8351	87.0742	-0.10	0.10	0.00	-22.75	7.333	5.21857	7.26188	0.0
7.8451	87.0942	-0.10	0.10	0.00	-22.75	7.333	5.21953	7.26321	0.0
7.8551	87.1142	-0.10	0.10	0.00	-22.75	7.333	5.22049	7.26455	0.0
7.8651	87.1342	-0.10	0.10	0.00	-22.75	7.333	5.22145	7.26588	0.0
7.8751	87.1542	-0.10	0.10	0.00	-22.75	7.333	5.22241	7.26721	2.0
7.8851	87.1742	-0.10	0.10	0.00	-22.75	7.333	5.22336	7.26854	4.0
7.8951	87.1942	-0.10	0.10	0.00	-22.75	7.333	5.22432	7.26988	0.0
7.9051	87.2142	-0.10	0.10	0.00	-22.75	7.333	5.22528	7.27121	4.0
7.9151	87.2342	-0.10	0.10	0.00	-22.75	7.333	5.22624	7.27254	0.0
7.9251	87.2542	-0.10	0.10	0.00	-22.75	7.333	5.22719	7.27387	0.0
7.9351	87.2742	-0.10	0.10	0.00	-22.75	7.333	5.22815	7.27521	0.0
7.9451	87.2942	-0.10	0.10	0.00	-22.75	7.333	5.22911	7.27654	0.0
7.9551	87.3142	-0.10	0.10	0.00	-22.75	7.333	5.23006	7.27787	2.0
7.9651	87.3342	-0.10	0.10	0.00	-22.75	7.333	5.23102	7.27920	0.0
7.9751	87.3542	-0.10	0.10	0.00	-22.75	7.333	5.23198	7.28053	0.0
7.9851	87.3742	-0.10	0.10	0.00	-22.75	7.333	5.23293	7.28186	2.0
7.9951	87.3942	-0.10	0.10	0.00	-22.75	7.333	5.23389	7.28319	0.0
8.0051	87.4142	-0.10	0.10	0.00	-22.75	7.333	5.23485	7.28452	0.0
8.0151	87.4342	-0.10	0.10	0.00	-22.75	7.333	5.23580	7.28585	0.0
8.0251	87.4542	-0.10	0.10	0.00	-22.75	7.333	5.23676	7.28718	0.0
8.0351	87.4742	-0.10	0.10	0.00	-22.75	7.333	5.23771	7.28851	0.0
8.0451	87.4942	-0.10	0.10	0.00	-22.75	7.333	5.23867	7.28984	0.0
8.0551	87.5142	-0.10	0.10	0.00	-22.75	7.333	5.23962	7.29117	4.0
8.0651	87.5342	-0.10	0.10	0.00	-22.75	7.333	5.24058	7.29250	0.0
8.0751	87.5542	-0.10	0.10	0.00	-22.75	7.333	5.24153	7.29383	0.0
8.0851	87.5742	-0.10	0.10	0.00	-22.75	7.333	5.24249	7.29516	0.0
8.0951	87.5942	-0.10	0.10	0.00	-22.75	7.333	5.24344	7.29648	0.0
8.1051	87.6142	-0.10	0.10	0.00	-22.75	7.333	5.24440	7.29781	2.0
8.1151	87.6342	-0.10	0.10	0.00	-22.75	7.333	5.24535	7.29914	2.0
8.1251	87.6542	-0.10	0.10	0.00	-22.75	7.333	5.24630	7.30047	4.0
8.1351	87.6742	-0.10	0.10	0.00	-22.75	7.333	5.24726	7.30179	0.0
8.1451	87.6942	-0.10	0.10	0.00	-22.75	7.333	5.24821	7.30312	0.0
8.1551	87.7142	-0.10	0.10	0.00	-22.75	7.333	5.24917	7.30445	0.0
8.1651	87.7342	-0.10	0.10	0.00	-22.75	7.333	5.25012	7.30578	2.0
8.1751	87.7542	-0.10	0.10	0.00	-22.75	7.333	5.25107	7.30710	0.0
8.1851	87.7742	-0.10	0.10	0.00	-22.75	7.333	5.25203	7.30843	0.0
8.1951	87.7942	-0.10	0.10	0.00	-22.75	7.333	5.25298	7.30975	2.0
8.2051	87.8142	-0.10	0.10	0.00	-22.75	7.333	5.25393	7.31108	2.0
8.2151	87.8342	-0.10	0.10	0.00	-22.75	7.333	5.25488	7.31241	4.0
8.2251	87.8542	-0.10	0.10	0.00	-22.75	7.333	5.25584	7.31373	0.0
8.2351	87.8742	-0.10	0.10	0.00	-22.75	7.333	5.25679	7.31506	6.0
8.2451	87.8942	-0.10	0.10	0.00	-22.75	7.333	5.25774	7.31638	0.0
8.2551	87.9142	-0.10	0.10	0.00	-22.75	7.333	5.25869	7.31771	0.0
8.2651	87.9342	-0.10	0.10	0.00	-22.75	7.333	5.25964	7.31903	0.0
8.2751	87.9542	-0.10	0.10	0.00	-22.75	7.333	5.26060	7.32035	2.0
8.2851	87.9742	-0.10	0.10	0.00	-22.75	7.333	5.26155	7.32168	0.0
8.2951	87.9942	-0.10	0.10	0.00	-22.75	7.333	5.26250	7.32300	2.0
8.3051	88.0142	-0.10	0.10	0.00	-22.75	7.333	5.26345	7.32433	0.0
8.3151	88.0342	-0.10	0.10	0.00	-22.75	7.333	5.26440	7.32565	0.0
8.3251	88.0542	-0.10	0.10	0.00	-22.75	7.333	5.26535	7.32697	2.0
8.3351	88.0742	-0.10	0.10	0.00	-22.75	7.333	5.26630	7.32829	2.0
8.3451	88.0942	-0.10	0.10	0.00	-22.75	7.333	5.26725	7.32962	0.0
8.3551	88.1142	-0.10	0.10	0.00	-22.75	7.333	5.26820	7.33094	2.0
8.3651	88.1342	-0.10	0.10	0.00	-22.75	7.333	5.26915	7.33226	4.0
8.3751	88.1542	-0.10	0.10	0.00	-22.75	7.333	5.27010	7.33358	0.0
8.3851	88.1742	-0.10	0.10	0.00	-22.75	7.333	5.27105	7.33491	0.0
8.3951	88.1942	-0.10	0.10	0.00	-22.75	7.333	5.27200	7.33623	0.0
8.4051	88.2142	-0.10	0.10	0.00	-22.75	7.333	5.27295	7.33755	2.0
8.4151	88.2342	-0.10	0.10	0.00	-22.75	7.333	5.27390	7.33887	2.0
8.4251	88.2542	-0.10	0.10	0.00	-22.75	7.333	5.27485	7.34019	2.0
8.4351	88.2742	-0.10	0.10	0.00	-22.75	7.333	5.27580	7.34151	0.0
8.4451	88.2942	-0.10	0.10	0.00	-22.75	7.333	5.27675	7.34283	4.0
8.4551	88.3142	-0.10	0.10	0.00	-22.75	7.333	5.27770	7.34415	2.0
8.4651	88.3342	-0.10	0.10	0.00	-22.75	7.333	5.27865	7.34547	0.0
8.4751	88.3542	-0.10	0.10	0.00	-22.75	7.333	5.27959	7.34679	0.0
8.4851	88.3742	-0.10	0.10	0.00	-22.75	7.333	5.28054	7.34811	0.0
8.4951	88.3942	-0.10	0.10	0.00	-22.75	7.333	5.28149	7.34943	0.0
8.5051	88.4142	-0.10	0.10	0.00	-22.75	7.333	5.28244	7.35075	0.0
8.5151	88.4342	-0.10	0.10	0.00	-22.75	7.333	5.28339	7.35207	4.0
8.5251	88.4542	-0.10	0.10	0.00	-22.75	7.333	5.28433	7.35339	0.0
8.5351	88.4742	-0.10	0.10	0.00	-22.75	7.333	5.28528	7.35470	0.0
8.5451	88.4942	-0.10	0.10	0.00	-22.75	7.333	5.28623	7.35602	4.0
8.5551	88.5142	-0.10	0.10	0.00	-22.75	7.333	5.28718	7.35734	4.0
8.5651	88.5342	-0.10	0.10	0.00	-22.75	7.333	5.28812	7.35866	0.0
8.5751	88.5542	-0.10	0.10	0.00	-22.75	7.333	5.28907	7.35998	2.0
8.5851	88.5742	-0.10	0.10	0.00	-22.75	7.333	5.29002	7.36129	0.0
8.5951	88.5942	-0.10	0.10	0.00	-22.75	7.333	5.29096	7.36261	0.0
8.6051	88.6142	-0.10	0.10	0.00	-22.75	7.333	5.29191	7.36393	2.0
8.6151	88.6342	-0.10	0.10	0.00	-22.75	7.333	5.29285	7.36524	0.0
8.6251	88.6542	-0.10	0.10	0.00	-22.75	7.333	5.29380	7.36656	4.0
8.6351	88.6742	-0.10	0.10	0.00	-22.75	7.333	5.29475	7.36788	2.0
8.6451	88.6942	-0.10	0.10	0.00	-22.75	7.333	5.29569	7.36919	2.0
8.6551	88.7142	-0.10	0.10	0.00	-22.75	7.333	5.29664	7.37051	0.0
8.6651	88.7342	-0.10	0.10	0.00	-22.75	7.333	5.29758	7.37182	0.0
8.6751	88.7542	-0.10	0.10	0.00	-22.75	7.333	5.29853	7.37314	0.0
8.6851	88.7742	-0.10	0.10	0.00	-22.75	7.333	5.29947	7.37445	0.0
8.6951	88.7942	-0.10	0.10	0.00	-22.75	7.333	5.30042	7.37577	2.0
8.7051	88.8142	-0.10	0.10	0.00	-22.75	7.333	5.30136	7.37708	2.0
8.7151	88.8342	-0.10	0.10	0.00	-22.75	7.333	5.30231	7.37840	4.0
8.7251	88.8542	-0.10	0.10	0.00	-22.75	7.333	5.30325	7.37971	0.0
8.7351	88.8742	-0.10	0.10	0.00	-22.75	7.333	5.30420	7.38103	4.0
8.7451	88.8942	-0.10	0.10	0.00	-22.75	7.333	5.30514	7.38234	0.0
8.7551	88.9142	-0.10	0.10	0.00	-22.75	7.333	5.30608	7.38365	0.0
8.7651	88.9342	-0.10	0.10	0.00	-22.75	7.333	5.30703	7.38497	2.0
8.7751	88.9542	-0.10	0.10	0.00	-22.75	7.333	5.30797	7.38628	2.0
8.7851	88.9742	-0.10	0.10	0.00	-22.75	7.333	5.30891	7.38759	0.0
8.7951	88.9942	-0.10	0.10	0.00	-22.75	7.333	5.30986	7.38890	2.0
8.8051	89.0142	-0.10	0.10	0.00	-22.75	7.333	5.31080	7.39022	2.0
8.8151	89.0342	-0.10	0.10	0.00	-22.75	7.333	5.31174	7.39153	0.0

6.8551	85.0742	-0.10	0.10	0.00	-22.75	7.333	5.11944	7.12918	4.0
6.8651	85.0942	-0.10	0.10	0.00	-22.75	7.333	5.12041	7.13054	0.0
6.8751	85.1142	-0.10	0.10	0.00	-22.75	7.333	5.12139	7.13189	0.0
6.8851	85.1342	-0.10	0.10	0.00	-22.75	7.333	5.12236	7.13325	0.0
6.8951	85.1542	-0.10	0.10	0.00	-22.75	7.333	5.12333	7.13460	4.0
6.9051	85.1742	-0.10	0.10	0.00	-22.75	7.333	5.12431	7.13596	0.0
6.9151	85.1942	-0.10	0.10	0.00	-22.75	7.333	5.12528	7.13731	0.0
6.9251	85.2142	-0.10	0.10	0.00	-22.75	7.333	5.12625	7.13867	0.0
6.9351	85.2342	-0.10	0.10	0.00	-22.75	7.333	5.12723	7.14002	0.0
6.9451	85.2542	-0.10	0.10	0.00	-22.75	7.333	5.12820	7.14138	0.0
6.9551	85.2742	-0.10	0.10	0.00	-22.75	7.333	5.12917	7.14273	2.0
6.9651	85.2942	-0.10	0.10	0.00	-22.75	7.333	5.13014	7.14408	0.0
6.9751	85.3142	-0.10	0.10	0.00	-22.75	7.333	5.13111	7.14544	0.0
6.9851	85.3342	-0.10	0.10	0.00	-22.75	7.333	5.13209	7.14679	0.0
6.9951	85.3542	-0.10	0.10	0.00	-22.75	7.333	5.13306	7.14814	0.0
7.0051	85.3742	-0.10	0.10	0.00	-22.75	7.333	5.13403	7.14950	6.0
7.0151	85.3942	-0.10	0.10	0.00	-22.75	7.333	5.13500	7.15085	0.0
7.0251	85.4142	-0.10	0.10	0.00	-22.75	7.333	5.13597	7.15220	2.0
7.0351	85.4342	-0.10	0.10	0.00	-22.75	7.333	5.13694	7.15355	4.0
7.0451	85.4542	-0.10	0.10	0.00	-22.75	7.333	5.13791	7.15491	0.0
7.0551	85.4742	-0.10	0.10	0.00	-22.75	7.333	5.13889	7.15626	2.0
7.0651	85.4942	-0.10	0.10	0.00	-22.75	7.333	5.13986	7.15761	0.0
[...]
9.6551	86.8342	-0.10	0.10	0.00	-22.75	7.333	4.95878	7.41798	0.0
9.6651	86.8542	-0.10	0.10	0.00	-22.75	7.333	4.95970	7.41935	2.0
9.6751	86.8742	-0.10	0.10	0.00	-22.75	7.333	4.96061	7.42071	8.0
9.6851	86.8942	-0.10	0.10	0.00	-22.75	7.333	4.96152	7.42208	2.0
9.6951	86.9142	-0.10	0.10	0.00	-22.75	7.333	4.96244	7.42345	6.0
9.7051	86.9342	-0.10	0.10	0.00	-22.75	7.333	4.96335	7.42482	2.0
9.7151	86.9542	-0.10	0.10	0.00	-22.75	7.333	4.96427	7.42618	0.0
9.7251	86.9742	-0.10	0.10	0.00	-22.75	7.333	4.96518	7.42755	2.0
9.7351	86.9942	-0.10	0.10	0.00	-22.75	7.333	4.96609	7.42892	0.0
9.7451	87.0142	-0.10	0.10	0.00	-22.75	7.333	4.96701	7.43028	4.0
9.7551	87.0342	-0.10	0.10	0.00	-22.75	7.333	4.96792	7.43165	4.0
9.7651	87.0542	-0.10	0.10	0.00	-22.75	7.333	4.96883	7.43301	0.0
9.7751	87.0742	-0.10	0.10	0.00	-22.75	7.333	4.96975	7.43438	4.0
9.7851	87.0942	-0.10	0.10	0.00	-22.75	7.333	4.97066	7.43575	2.0
9.7951	87.1142	-0.10	0.10	0.00	-22.75	7.333	4.97157	7.43711	4.0
9.8051	87.1342	-0.10	0.10	0.00	-22.75	7.333	4.97248	7.43848	0.0
9.8151	87.1542	-0.10	0.10	0.00	-22.75	7.333	4.97340	7.43984	2.0
9.8251	87.1742	-0.10	0.10	0.00	-22.75	7.333	4.97431	7.44120	0.0
9.8351	87.1942	-0.10	0.10	0.00	-22.75	7.333	4.97522	7.44257	2.0
9.8451	87.2142	-0.10	0.10	0.00	-22.75	7.333	4.97613	7.44393	2.0
9.8551	87.2342	-0.10	0.10	0.00	-22.75	7.333	4.97704	7.44530	0.0
9.8651	87.2542	-0.10	0.10	0.00	-22.75	7.333	4.97796	7.44666	4.0
9.8751	87.2742	-0.10	0.10	0.00	-22.75	7.333	4.97887	7.44802	2.0
9.8851	87.2942	-0.10	0.10	0.00	-22.75	7.333	4.97978	7.44939	2.0
9.8951	87.3142	-0.10	0.10	0.00	-22.75	7.333	4.98069	7.45075	4.0
9.9051	87.3342	-0.10	0.10	0.00	-22.75	7.333	4.98160	7.45211	2.0
9.9151	87.3542	-0.10	0.10	0.00	-22.75	7.333	4.98251	7.45348	4.0
9.9251	87.3742	-0.10	0.10	0.00	-22.75	7.333	4.98342	7.45484	2.0
9.9351	87.3942	-0.10	0.10	0.00	-22.75	7.333	4.98433	7.45620	0.0
9.9451	87.4142	-0.10	0.10	0.00	-22.75	7.333	4.98524	7.45756	2.0
9.9551	87.4342	-0.10	0.10	0.00	-22.75	7.333	4.98615	7.45892	2.0
9.9651	87.4542	-0.10	0.10	0.00	-22.75	7.333	4.98706	7.46028	2.0
9.9751	87.4742	-0.10	0.10	0.00	-22.75	7.333	4.98797	7.46165	0.0
9.9851	87.4942	-0.10	0.10	0.00	-22.75	7.333	4.98888	7.46301	0.0
9.9951	87.5142	-0.10	0.10	0.00	-22.75	7.333	4.98979	7.46437	2.0
10.0051	87.5342	-0.10	0.10	0.00	-22.75	7.333	4.99070	7.46573	2.0
10.0151	87.5542	-0.10	0.10	0.00	-22.75	7.333	4.99161	7.46709	6.0
10.0251	87.5742	-0.10	0.10	0.00	-22.75	7.333	4.99252	7.46845	4.0
10.0351	87.5942	-0.10	0.10	0.00	-22.75	7.333	4.99343	7.46981	0.0
10.0451	87.6142	-0.10	0.10	0.00	-22.75	7.333	4.99434	7.47117	4.0
10.0551	87.6342	-0.10	0.10	0.00	-22.75	7.333	4.99525	7.47253	0.0
10.0651	87.6542	-0.10	0.10	0.00	-22.75	7.333	4.99616	7.47389	0.0
10.0751	87.6742	-0.10	0.10	0.00	-22.75	7.333	4.99706	7.47524	0.0
10.0851	87.6942	-0.10	0.10	0.00	-22.75	7.333	4.99797	7.47660	2.0
10.0951	87.7142	-0.10	0.10	0.00	-22.75	7.333	4.99888	7.47796	0.0
10.1051	87.7342	-0.10	0.10	0.00	-22.75	7.333	4.99979	7.47932	2.0
10.1151	87.7542	-0.10	0.10	0.00	-22.75	7.333	5.00070	7.48068	0.0
10.1251	87.7742	-0.10	0.10	0.00	-22.75	7.333	5.00160	7.48204	0.0
10.1351	87.7942	-0.10	0.10	0.00	-22.75	7.333	5.00251	7.48339	6.0
10.1451	87.8142	-0.10	0.10	0.00	-22.75	7.333	5.00342	7.48475	2.0
10.1551	87.8342	-0.10	0.10	0.00	-22.75	7.333	5.00433	7.48611	0.0
10.1651	87.8542	-0.10	0.10	0.00	-22.75	7.333	5.00523	7.48746	0.0
10.1751	87.8742	-0.10	0.10	0.00	-22.75	7.333	5.00614	7.48882	0.0
10.1851	87.8942	-0.10	0.10	0.00	-22.75	7.333	5.00705	7.49018	2.0
10.1951	87.9142	-0.10	0.10	0.00	-22.75	7.333	5.00795	7.49153	0.0
10.2051	87.9342	-0.10	0.10	0.00	-22.75	7.333	5.00886	7.49289	6.0
10.2151	87.9542	-0.10	0.10	0.00	-22.75	7.333	5.00976	7.49424	2.0
10.2251	87.9742	-0.10	0.10	0.00	-22.75	7.333	5.01067	7.49560	4.0
10.2351	87.9942	-0.10	0.10	0.00	-22.75	7.333	5.01158	7.49696	2.0
10.2451	88.0142	-0.10	0.10	0.00	-22.75	7.333	5.01248	7.49831	0.0
10.2551	88.0342	-0.10	0.10	0.00	-22.75	7.333	5.01339	7.49966	0.0
10.2651	88.0542	-0.10	0.10	0.00	-22.75	7.333	5.01429	7.50102	0.0
10.2751	88.0742	-0.10	0.10	0.00	-22.75	7.333	5.01520	7.50237	0.0
10.2851	88.0942	-0.10	0.10	0.00	-22.75	7.333	5.01610	7.50373	0.0
10.2951	88.1142	-0.10	0.10	0.00	-22.75	7.333	5.01701	7.50508	0.0
10.3051	88.1342	-0.10	0.10	0.00	-22.75	7.333	5.01791	7.50644	0.0
10.3151	88.1542	-0.10	0.10	0.00	-22.75	7.333	5.01882	7.50779	2.0
10.3251	88.1742	-0.10	0.10	0.00	-22.75	7.333	5.01972	7.50914	0.0
10.3351	88.1942	-0.10	0.10	0.00	-22.75	7.333	5.02063	7.51049	0.0
10.3451	88.2142	-0.10	0.10	0.00	-22.75	7.333	5.02153	7.51185	0.0
10.3551	88.2342	-0.10	0.10	0.00	-22.75	7.333	5.02244	7.51320	2.0
10.3651	88.2542	-0.10	0.10	0.00	-22.75	7.333	5.02334	7.51455	2.0
10.3751	88.2742	-0.10	0.10	0.00	-22.75	7.333	5.02424	7.51590	0.0
10.3851	88.2942	-0.10	0.10	0.00	-22.75	7.333	5.02515	7.51726	6.0
10.3951	88.3142	-0.10	0.10	0.00	-22.75	7.333	5.02605	7.51861	0.0
10.4051	88.3342	-0.10	0.10	0.00	-22.75	7.333	5.02695	7.51996	0.0
10.4151	88.3542	-0.10	0.10	0.00	-22.75	7.333	5.02786	7.52131	6.0
10.4251	88.3742	-0.10	0.10	0.00	-22.75	7.333	5.02876	7.52266	2.0
10.4351	88.3942	-0.10	0.10	0.00	-22.75	7.333	5.02966	7.52401	0.0
10.4451	88.4142	-0.10	0.10	0.00	-22.75	7.333	5.03057	7.52536	2.0
10.4551	88.4342	-0.10	0.10	0.00	-22.75	7.333	5.03147	7.52671	2.0
10.4651	88.4542	-0.10	0.10	0.00	-22.75	7.333	5.03237	7.52806	0.0
10.4751	88.4742	-0.10	0.10	0.00	-22.75	7.333	5.03327	7.52941	0.0
10.4851	88.4942	-0.10	0.10	0.00	-22.75	7.333	5.03418	7.53076	0.0
10.4951	88.5142	-0.10	0.10	0.00	-22.75	7.333	5.03508	7.53211	0.0
10.5051	88.5342	-0.10	0.10	0.00	-22.75	7.333	5.03598	7.53346	2.0
10.5151	88.5542	-0.10	0.10	0.00	-22.75	7.333	5.03688	7.53481	0.0
10.5251	88.5742	-0.10	0.10	0.00	-22.75	7.333	5.03778	7.53616	2.0
10.5351	88.5942	-0.10	0.10	0.00	-22.75	7.333	5.03868	7.53751	2.0
10.5451	88.6142	-0.10	0.10	0.00	-22.75	7.333	5.03958	7.53885	0.0
10.5551	88.6342	-0.10	0.10	0.00	-22.75	7.333	5.04049	7.54020	4.0
10.5651	88.6542	-0.10	0.10	0.00	-22.75	7.333	5.04139	7.54155	0.0
10.5751	88.6742	-0.10	0.10	0.00	-22.75	7.333	5.04229	7.54290	0.0
10.5851	88.6942	-0.10	0.10	0.00	-22.75	7.333	5.04319	7.54424	0.0
10.5951	88.7142	-0.10	0.10	0.00	-22.75	7.333	5.04409	7.54559	2.0
10.6051	88.7342	-0.10	0.10	0.00	-22.75	7.333	5.04499	7.54694	2.0
10.6151	88.7542	-0.10	0.10	0.00	-22.75	7.333	5.04589	7.54828	4.0
10.6251	88.7742	-0.10	0.10	0.00	-22.75	7.333	5.04679	7.54963	2.0
10.6351	88.7942	-0.10	0.10	0.00	-22.75	7.333	5.04769	7.55098	0.0
10.6451	88.8142	-0.10	0.10	0.00	-22.75	7.333	5.04859	7.55232	0.0
10.6551	88.8342	-0.10	0.10	0.00	-22.75	7.333	5.04949	7.55367	4.0
10.6651	88.8542	-0.10	0.10	0.00	-22.75	7.333	5.05039	7.55501	2.0
10.6751	88.8742	-0.10	0.10	0.00	-22.75	7.333	5.05129	7.55636	0.0
10.6851	88.8942	-0.10	0.10	0.00	-22.75	7.333	5.05219	7.55770	2.0
10.6951	88.9142	-0.10	0.10	0.00	-22.75	7.333	5.05308	7.55905	0.0
10.7051	88.9342	-0.10	0.10	0.00	-22.75	7.333	5.05398	7.56039	0.0
10.7151	88.9542	-0.10	0.10	0.00	-22.75	7.333	5.05488	7.56174	2.0
10.7251	88.9742	-0.10	0.10	0.00	-22.75	7.333	5.05578	7.56308	0.0
10.7351	88.9942	-0.10	0.10	0.00	-22.75	7.333	5.05668	7.56442	0.0
10.7451	89.0142	-0.10	0.10	0.00	-22.75	7.333	5.05758	7.56577	0.0
10.7551	89.0342	-0.10	0.10	0.00	-22.75	7.333	5.05847	7.56711	0.0

8.7951	85.0742	-0.10	0.10	0.00	-22.75	7.333	4.87516	7.29840	0.0
8.8051	85.0942	-0.10	0.10	0.00	-22.75	7.333	4.87609	7.29979	0.0
8.8151	85.1142	-0.10	0.10	0.00	-22.75	7.333	4.87702	7.30118	0.0
8.8251	85.1342	-0.10	0.10	0.00	-22.75	7.333	4.87794	7.30257	2.0
8.8351	85.1542	-0.10	0.10	0.00	-22.75	7.333	4.87887	7.30395	0.0
8.8451	85.1742	-0.10	0.10	0.00	-22.75	7.333	4.87980	7.30534	0.0
8.8551	85.1942	-0.10	0.10	0.00	-22.75	7.333	4.88072	7.30673	2.0
8.8651	85.2142	-0.10	0.10	0.00	-22.75	7.333	4.88165	7.30811	2.0
8.8751	85.2342	-0.10	0.10	0.00	-22.75	7.333	4.88258	7.30950	2.0
8.8851	85.2542	-0.10	0.10	0.00	-22.75	7.333	4.88350	7.31089	4.0
8.8951	85.2742	-0.10	0.10	0.00	-22.75	7.333	4.88443	7.31227	0.0
8.9051	85.2942	-0.10	0.10	0.00	-22.75	7.333	4.88535	7.31366	4.0
8.9151	85.3142	-0.10	0.10	0.00	-22.75	7.333	4.88628	7.31505	2.0
8.9251	85.3342	-0.10	0.10	0.00	-22.75	7.333	4.88721	7.31643	0.0
8.9351	85.3542	-0.10	0.10	0.00	-22.75	7.333	4.88813	7.31782	0.0
8.9451	85.3742	-0.10	0.10	0.00	-22.75	7.333	4.88906	7.31920	6.0
8.9551	85.3942	-0.10	0.10	0.00	-22.75	7.333	4.88998	7.32059	0.0
8.9651	85.4142	-0.10	0.10	0.00	-22.75	7.333	4.89091	7.32197	2.0
8.9751	85.4342	-0.10	0.10	0.00	-22.75	7.333	4.89183	7.32336	4.0
8.9851	85.4542	-0.10	0.10	0.00	-22.75	7.333	4.89276	7.32474	0.0
8.9951	85.4742	-0.10	0.10	0.00	-22.75	7.333	4.89368	7.32612	2.0
9.0051	85.4942	-0.10	0.10	0.00	-22.75	7.333	4.89460	7.32751	0.0
9.0151	85.5142	-0.10	0.10	0.00	-22.75	7.333	4.89553	7.32889	4.0
9.0251	85.5342	-0.10	0.10	0.00	-22.75	7.333	4.89645	7.33027	0.0
9.0351	85.5542	-0.10	0.10	0.00	-22.75	7.333	4.89738	7.33166	0.0
9.0451	85.5742	-0.10	0.10	0.00	-22.75	7.333	4.89830	7.33304	2.0
9.0551	85.5942	-0.10	0.10	0.00	-22.75	7.333	4.89922	7.33442	2.0
9.0651	85.6142	-0.10	0.10	0.00	-22.75	7.333	4.90015	7.33580	2.0
9.0751	85.6342	-0.10	0.10	0.00	-22.75	7.333	4.90107	7.33719	2.0
9.0851	85.6542	-0.10	0.10	0.00	-22.75	7.333	4.90199	7.33857	0.0
9.0951	85.6742	-0.10	0.10	0.00	-22.75	7.333	4.90292	7.33995	4.0
9.1051	85.6942	-0.10	0.10	0.00	-22.75	7.333	4.90384	7.34133	4.0
9.1151	85.7142	-0.10	0.10	0.00	-22.75	7.333	4.90476	7.34271	2.0
9.1251	85.7342	-0.10	0.10	0.00	-22.75	7.333	4.90568	7.34409	0.0
9.1351	85.7542	-0.10	0.10	0.00	-22.75	7.333	4.90661	7.34548	2.0
9.1451	85.7742	-0.10	0.10	0.00	-22.75	7.333	4.90753	7.34686	0.0
9.1551	85.7942	-0.10	0.10	0.00	-22.75	7.333	4.90845	7.34824	4.0
9.1651	85.8142	-0.10	0.10	0.00	-22.75	7.333	4.90937	7.34962	0.0
9.1751	85.8342	-0.10	0.10	0.00	-22.75	7.333	4.91029	7.35100	4.0
9.1851	85.8542	-0.10	0.10	0.00	-22.75	7.333	4.91122	7.35238	0.0
9.1951	85.8742	-0.10	0.10	0.00	-22.75	7.333	4.91214	7.35376	4.0
9.2051	85.8942	-0.10	0.10	0.00	-22.75	7.333	4.91306	7.35513	0.0
9.2151	85.9142	-0.10	0.10	0.00	-22.75	7.333	4.91398	7.35651	2.0
9.2251	85.9342	-0.10	0.10	0.00	-22.75	7.333	4.91490	7.35789	2.0
9.2351	85.9542	-0.10	0.10	0.00	-22.75	7.333	4.91582	7.35927	4.0
9.2451	85.9742	-0.10	0.10	0.00	-22.75	7.333	4.91674	7.36065	2.0
9.2551	85.9942	-0.10	0.10	0.00	-22.75	7.333	4.91766	7.36203	0.0
9.2651	86.0142	-0.10	0.10	0.00	-22.75	7.333	4.91858	7.36341	2.0
9.2751	86.0342	-0.10	0.10	0.00	-22.75	7.333	4.91950	7.36478	0.0
9.2851	86.0542	-0.10	0.10	0.00	-22.75	7.333	4.92042	7.36616	4.0
9.2951	86.0742	-0.10	0.10	0.00	-22.75	7.333	4.92134	7.36754	0.0
9.3051	86.0942	-0.10	0.10	0.00	-22.75	7.333	4.92226	7.36892	0.0
9.3151	86.1142	-0.10	0.10	0.00	-22.75	7.333	4.92318	7.37029	2.0
9.3251	86.1342	-0.10	0.10	0.00	-22.75	7.333	4.92410	7.37167	0.0
9.3351	86.1542	-0.10	0.10	0.00	-22.75	7.333	4.92502	7.37305	0.0
9.3451	86.1742	-0.10	0.10	0.00	-22.75	7.333	4.92594	7.37442	4.0
9.3551	86.1942	-0.10	0.10	0.00	-22.75	7.333	4.92686	7.37580	0.0
9.3651	86.2142	-0.10	0.10	0.00	-22.75	7.333	4.92778	7.37717	4.0
9.3751	86.2342	-0.10	0.10	0.00	-22.75	7.333	4.92870	7.37855	0.0
9.3851	86.2542	-0.10	0.10	0.00	-22.75	7.333	4.92962	7.37992	4.0
9.3951	86.2742	-0.10	0.10	0.00	-22.75	7.333	4.93054	7.38130	4.0
9.4051	86.2942	-0.10	0.10	0.00	-22.75	7.333	4.93145	7.38267	4.0
9.4151	86.3142	-0.10	0.10	0.00	-22.75	7.333	4.93237	7.38405	0.0
9.4251	86.3342	-0.10	0.10	0.00	-22.75	7.333	4.93329	7.38542	0.0
9.4351	86.3542	-0.10	0.10	0.00	-22.75	7.333	4.93421	7.38680	0.0
9.4451	86.3742	-0.10	0.10	0.00	-22.75	7.333	4.93513	7.38817	2.0
9.4551	86.3942	-0.10	0.10	0.00	-22.75	7.333	4.93604	7.38954	0.0
9.4651	86.4142	-0.10	0.10	0.00	-22.75	7.333	4.93696	7.39092	4.0
9.4751	86.4342	-0.10	0.10	0.00	-22.75	7.333	4.93788	7.39229	2.0
9.4851	86.4542	-0.10	0.10	0.00	-22.75	7.333	4.93879	7.39366	0.0
9.4951	86.4742	-0.10	0.10	0.00	-22.75	7.333	4.93971	7.39504	2.0
9.5051	86.4942	-0.10	0.10	0.00	-22.75	7.333	4.94063	7.39641	0.0
9.5151	86.5142	-0.10	0.10	0.00	-22.75	7.333	4.94155	7.39778	2.0
9.5251	86.5342	-0.10	0.10	0.00	-22.75	7.333	4.94246	7.39915	0.0
9.5351	86.5542	-0.10	0.10	0.00	-22.75	7.333	4.94338	7.40053	4.0
9.5451	86.5742	-0.10	0.10	0.00	-22.75	7.333	4.94429	7.40190	0.0
9.5551	86.5942	-0.10	0.10	0.00	-22.75	7.333	4.94521	7.40327	0.0
9.5651	86.6142	-0.10	0.10	0.00	-22.75	7.333	4.94613	7.40464	2.0
9.5751	86.6342	-0.10	0.10	0.00	-22.75	7.333	4.94704	7.40601	0.0
9.5851	86.6542	-0.10	0.10	0.00	-22.75	7.333	4.94796	7.40738	0.0
9.5951	86.6742	-0.10	0.10	0.00	-22.75	7.333	4.94887	7.40875	2.0
9.6051	86.6942	-0.10	0.10	0.00	-22.75	7.333	4.94979	7.41012	4.0
9.6151	86.7142	-0.10	0.10	0.00	-22.75	7.333	4.95070	7.41149	0.0
9.6251	86.7342	-0.10	0.10	0.00	-22.75	7.333	4.95162	7.41286	2.0
9.6351	86.7542	-0.10	0.10	0.00	-22.75	7.333	4.95253	7.41423	4.0
9.6451	86.7742	-0.10	0.10	0.00	-22.75	7.333	4.95345	7.41560	2.0
9.6551	86.7942	-0.10	0.10	0.00	-22.75	7.333	4.95436	7.41697	8.0
9.6651	86.8142	-0.10	0.10	0.00	-22.75	7.333	4.95528	7.41834	4.0
9.6751	86.8342	-0.10	0.10	0.00	-22.75	7.333	4.95619	7.41971	0.0
9.6851	86.8542	-0.10	0.10	0.00	-22.75	7.333	4.95711	7.42108	4.0
9.6951	86.8742	-0.10	0.10	0.00	-22.75	7.333	4.95802	7.42244	2.0
9.7051	86.8942	-0.10	0.10	0.00	-22.75	7.333	4.95893	7.42381	0.0
9.7151	86.9142	-0.10	0.10	0.00	-22.75	7.333	4.95985	7.42518	2.0
9.7251	86.9342	-0.10	0.10	0.00	-22.75	7.333	4.96076	7.42655	2.0
9.7351	86.9542	-0.10	0.10	0.00	-22.75	7.333	4.96167	7.42791	0.0
9.7451	86.9742	-0.10	0.10	0.00	-22.75	7.333	4.96259	7.42928	4.0
9.7551	86.9942	-0.10	0.10	0.00	-22.75	7.333	4.96350	7.43065	0.0
9.7651	87.0142	-0.10	0.10	0.00	-22.75	7.333	4.96441	7.43202	0.0
9.7751	87.0342	-0.10	0.10	0.00	-22.75	7.333	4.96533	7.43338	4.0
9.7851	87.0542	-0.10	0.10	0.00	-22.75	7.333	4.96624	7.43475	0.0
9.7951	87.0742	-0.10	0.10	0.00	-22.75	7.333	4.96715	7.43611	0.0
9.8051	87.0942	-0.10	0.10	0.00	-22.75	7.333	4.96806	7.43748	0.0
9.8151	87.1142	-0.10	0.10	0.00	-22.75	7.333	4.96898	7.43885	0.0
9.8251	87.1342	-0.10	0.10	0.00	-22.75	7.333	4.96989	7.44021	0.0
9.8351	87.1542	-0.10	0.10	0.00	-22.75	7.333	4.97080	7.44158	4.0
9.8451	87.1742	-0.10	0.10	0.00	-22.75	7.333	4.97171	7.44294	0.0
9.8551	87.1942	-0.10	0.10	0.00	-22.75	7.333	4.97262	7.44431	0.0
9.8651	87.2142	-0.10	0.10	0.00	-22.75	7.333	4.97353	7.44567	2.0
9.8751	87.2342	-0.10	0.10	0.00	-22.75	7.333	4.97445	7.44703	0.0
9.8851	87.2542	-0.10	0.10	0.00	-22.75	7.333	4.97536	7.44840	6.0
9.8951	87.2742	-0.10	0.10	0.00	-22.75	7.333	4.97627	7.44976	2.0
9.9051	87.2942	-0.10	0.10	0.00	-22.75	7.333	4.97718	7.45113	4.0
9.9151	87.3142	-0.10	0.10	0.00	-22.75	7.333	4.97809	7.45249	8.0
9.9251	87.3342	-0.10	0.10	0.00	-22.75	7.333	4.97900	7.45385	8.0
9.9351	87.3542	-0.10	0.10	0.00	-22.75	7.333	4.97991	7.45521	6.0
9.9451	87.3742	-0.10	0.10	0.00	-22.75	7.333	4.98082	7.45658	2.0
9.9551	87.3942	-0.10	0.10	0.00	-22.75	7.333	4.98173	7.45794	4.0
9.9651	87.4142	-0.10	0.10	0.00	-22.75	7.333	4.98264	7.45930	4.0
9.9751	87.4342	-0.10	0.10	0.00	-22.75	7.333	4.98355	7.46066	0.0
9.9851	87.4542	-0.10	0.10	0.00	-22.75	7.333	4.98446	7.46202	2.0
9.9951	87.4742	-0.10	0.10	0.00	-22.75	7.333	4.98537	7.46339	4.0
10.0051	87.4942	-0.10	0.10	0.00	-22.75	7.333	4.98628	7.46475	2.0
10.0151	87.5142	-0.10	0.10	0.00	-22.75	7.333	4.98719	7.46611	4.0
10.0251	87.5342	-0.10	0.10	0.00	-22.75	7.333	4.98810	7.46747	6.0
10.0351	87.5542	-0.10	0.10	0.00	-22.75	7.333	4.98900	7.46883	4.0
10.0451	87.5742	-0.10	0.10	0.00	-22.75	7.333	4.98991	7.47019	0.0
10.0551	87.5942	-0.10	0.10	0.00	-22.75	7.333	4.99082	7.47155	2.0
10.0651	87.6142	-0.10	0.10	0.00	-22.75	7.333	4.99173	7.47291	0.0
10.0751	87.6342	-0.10	0.10	0.00	-22.75	7.333	4.99264	7.47427	0.0
10.0851	87.6542	-0.10	0.10	0.00	-22.75	7.333	4.99355	7.47563	2.0
10.0951	87.6742	-0.10	0.10	0.00	-22.75	7.333	4.99445	7.47699	2.0
10.1051	87.6942	-0.10	0.10	0.00	-22.75	7.333	4.99536	7.47835	2.0
10.1151	87.7142	-0.10	0.10	0.00	-22.75	7.333	4.99627	7.47971	0.0
10.1251	87.7342	-0.10	0.10	0.00	-22.75	7.333	4.99718	7.48106	2.0
10.1351	87.7542	-0.10	0.10	0.00	-22.75	7.333	4.99808	7.48242	0.0
10.1451	87.7742	-0.10	0.10	0.00	-22.75	7.333	4.99899	7.48378	0.0
10.1551	87.7942	-0.10	0.10	0.00	-22.75	7.333	4.99990	7.48514	4.0
10.1651	87.8142	-0.10	0.10	0.00	-22.75	7.333	5.00080	7.48650	0.0
10.1751	87.8342	-0.10	0.10	0.00	-22.75	7.333	5.00171	7.48785	0.0
10.1851	87.8542	-0.10	0.10	0.00	-22.75	7.333	5.00262	7.48921	6.0
10.1951	87.8742	-0.10	0.10	0.00	-22.75	7.333	5.00352	7.49057	4.0
10.2051	87.8942	-0.10	0.10	0.00	-22.75	7.333	5.00443	7.49192	0.0
10.2151	87.9142	-0.10	0.10	0.00	-22.75	7.333	5.00534	7.49328	2.0
10.2251	87.9342	-0.10	0.10	0.00	-22.75	7.333	5.00624	7.49464	6.0
10.2351	87.9542	-0.10	0.10	0.00	-22.75	7.333	5.00715	7.49599	6.0
10.2451	87.9742	-0.10	0.10	0.00	-22.75	7.333	5.00805	7.49735	0.0
10.2551	87.9942	-0.10	0.10	0.00	-22.75	7.333	5.00896	7.49870	0.0
10.2651	88.0142	-0.10	0.10	0.00	-22.75	7.333	5.00986	7.50006	2.0
10.2751	88.0342	-0.10	0.10	0.00	-22.75	7.333	5.01077	7.50141	4.0
10.2851	88.0542	-0.10	0.10	0.00	-22.75	7.333	5.01168	7.50277	0.0
10.2951	88.0742	-0.10	0.10	0.00	-22.75	7.333	5.01258	7.50412	2.0
10.3051	88.0942	-0.10	0.10	0.00	-22.75	7.333	5.01348	7.50548	2.0
10.3151	88.1142	-0.10	0.10	0.00	-22.75	7.333	5.01439	7.50683	0.0
10.3251	88.1342	-0.10	0.10	0.00	-22.75	7.333	5.01529	7.50819	2.0
10.3351	88.1542	-0.10	0.10	0.00	-22.75	7.333	5.01620	7.50954	0.0
10.3451	88.1742	-0.10	0.10	0.00	-22.75	7.333	5.01710	7.51089	2.0
10.3551	88.1942	-0.10	0.10	0.00	-22.75	7.333	5.01801	7.51225	2.0
10.3651	88.2142	-0.10	0.10	0.00	-22.75	7.333	5.01891	7.51360	4.0
10.3751	88.2342	-0.10	0.10	0.00	-22.75	7.333	5.01981	7.51495	0.0
10.3851	88.2542	-0.10	0.10	0.00	-22.75	7.333	5.02072	7.51631	0.0
10.3951	88.2742	-0.10	0.10	0.00	-22.75	7.333	5.02162	7.51766	4.0
10.4051	88.2942	-0.10	0.10	0.00	-22.75	7.333	5.02252	7.51901	4.0
10.4151	88.3142	-0.10	0.10	0.00	-22.75	7.333	5.02343	7.52036	2.0
10.4251	88.3342	-0.10	0.10	0.00	-22.75	7.333	5.02433	7.52171	0.0
10.4351	88.3542	-0.10	0.10	0.00	-22.75	7.333	5.02523	7.52306	4.0
10.4451	88.3742	-0.10	0.10	0.00	-22.75	7.333	5.02613	7.52442	0.0
10.4551	88.3942	-0.10	0.10	0.00	-22.75	7.333	5.02704	7.52577	0.0
10.4651	88.4142	-0.10	0.10	0.00	-22.75	7.333	5.02794	7.52712	0.0
10.4751	88.4342	-0.10	0.10	0.00	-22.75	7.333	5.02884	7.52847	0.0
10.4851	88.4542	-0.10	0.10	0.00	-22.75	7.333	5.02974	7.52982	0.0
10.4951	88.4742	-0.10	0.10	0.00	-22.75	7.333	5.03064	7.53117	0.0
10.5051	88.4942	-0.10	0.10	0.00	-22.75	7.333	5.03155	7.53252	4.0
10.5151	88.5142	-0.10	0.10	0.00	-22.75	7.333	5.03245	7.53387	0.0
10.5251	88.5342	-0.10	0.10	0.00	-22.75	7.333	5.03335	7.53522	0.0
10.5351	88.5542	-0.10	0.10	0.00	-22.75	7.333	5.03425	7.53657	0.0
10.5451	88.5742	-0.10	0.10	0.00	-22.75	7.333	5.03515	7.53791	2.0
10.5551	88.5942	-0.10	0.10	0.00	-22.75	7.333	5.03605	7.53926	4.0
10.5651	88.6142	-0.10	0.10	0.00	-22.75	7.333	5.03695	7.54061	2.0
10.5751	88.6342	-0.10	0.10	0.00	-22.75	7.333	5.03785	7.54196	2.0
10.5851	88.6542	-0.10	0.10	0.00	-22.75	7.333	5.03875	7.54331	0.0
10.5951	88.6742	-0.10	0.10	0.00	-22.75	7.333	5.03965	7.54466	0.0
10.6051	88.6942	-0.10	0.10	0.00	-22.75	7.333	5.04055	7.54600	0.0
10.6151	88.7142	-0.10	0.10	0.00	-22.75	7.333	5.04145	7.54735	0.0
10.6251	88.7342	-0.10	0.10	0.00	-22.75	7.333	5.04235	7.54870	0.0
10.6351	88.7542	-0.10	0.10	0.00	-22.75	7.333	5.04325	7.55004	2.0
10.6451	88.7742	-0.10	0.10	0.00	-22.75	7.333	5.04415	7.55139	0.0
10.6551	88.7942	-0.10	0.10	0.00	-22.75	7.333	5.04505	7.55274	0.0
10.6651	88.8142	-0.10	0.10	0.00	-22.75	7.333	5.04595	7.55408	0.0
10.6751	88.8342	-0.10	0.10	0.00	-22.75	7.333	5.04685	7.55543	2.0
10.6851	88.8542	-0.10	0.10	0.00	-22.75	7.333	5.04775	7.55677	2.0
10.6951	88.8742	-0.10	0.10	0.00	-22.75	7.333	5.04865	7.55812	4.0
10.7051	88.8942	-0.10	0.10	0.00	-22.75	7.333	5.04955	7.55947	2.0
10.7151	88.9142	-0.10	0.10	0.00	-22.75	7.333	5.05045	7.56081	4.0
10.7251	88.9342	-0.10	0.10	0.00	-22.75	7.333	5.05134	7.56216	2.0
10.7351	88.9542	-0.10	0.10	0.00	-22.75	7.333	5.05224	7.56350	2.0
10.7451	88.9742	-0.10	0.10	0.00	-22.75	7.333	5.05314	7.56484	2.0
10.7551	88.9942	-0.10	0.10	0.00	-22.75	7.333	5.05404	7.56619	0.0
10.7651	89.0142	-0.10	0.10	0.00	-22.75	7.333	5.05493	7.56753	4.0
10.7751	89.0342	-0.10	0.10	0.00	-22.75	7.333	5.05583	7.56888	6.0