File: Data/Omega2Theta/2.0deg-2.0deg-rsm-3h10mins_11371-as-grown_224_w_000-100.dat
# filename: 2.0deg-2.0deg-rsm-3h10mins_11371-as-grown_224.dat
# reflection: (004)
# type: Projection of 100 omega2theta scans
# x-axis: omega2theta
#
# Omega	2Theta	Phi  	Chi   	X    	Y    	Z    	q_para	q_perp	Intensity
# [deg]	[deg] 	[deg]	[deg] 	[mm] 	[mm] 	[mm] 	[nm-1]	[nm-1]	[counts/s]
7.3979	85.0636	0.79	0.07	5.00	5.00	7.412	5.05024	7.17673	1.2
7.4079	85.0836	0.79	0.07	5.00	5.00	7.412	5.05120	7.17810	1.6
7.4179	85.1036	0.79	0.07	5.00	5.00	7.412	5.05216	7.17946	1.6
7.4279	85.1236	0.79	0.07	5.00	5.00	7.412	5.05312	7.18083	1.6
7.4379	85.1436	0.79	0.07	5.00	5.00	7.412	5.05408	7.18219	1.6
7.4479	85.1636	0.79	0.07	5.00	5.00	7.412	5.05504	7.18356	1.6
7.4579	85.1836	0.79	0.07	5.00	5.00	7.412	5.05600	7.18492	1.9
7.4679	85.2036	0.79	0.07	5.00	5.00	7.412	5.05696	7.18628	1.5
7.4779	85.2236	0.79	0.07	5.00	5.00	7.412	5.05792	7.18765	1.9
7.4879	85.2436	0.79	0.07	5.00	5.00	7.412	5.05888	7.18901	1.9
7.4979	85.2636	0.79	0.07	5.00	5.00	7.412	5.05984	7.19037	2.0
7.5079	85.2836	0.79	0.07	5.00	5.00	7.412	5.06080	7.19174	1.6
7.5179	85.3036	0.79	0.07	5.00	5.00	7.412	5.06176	7.19310	1.8
7.5279	85.3236	0.79	0.07	5.00	5.00	7.412	5.06272	7.19446	1.9
7.5379	85.3436	0.79	0.07	5.00	5.00	7.412	5.06367	7.19582	1.8
7.5479	85.3636	0.79	0.07	5.00	5.00	7.412	5.06463	7.19719	1.7
7.5579	85.3836	0.79	0.07	5.00	5.00	7.412	5.06559	7.19855	1.6
7.5679	85.4036	0.79	0.07	5.00	5.00	7.412	5.06655	7.19991	1.9
7.5779	85.4236	0.79	0.07	5.00	5.00	7.412	5.06751	7.20127	2.0
7.5879	85.4436	0.79	0.07	5.00	5.00	7.412	5.06846	7.20263	1.9
7.5979	85.4636	0.79	0.07	5.00	5.00	7.412	5.06942	7.20400	1.9
7.6079	85.4836	0.79	0.07	5.00	5.00	7.412	5.07038	7.20536	2.1
7.6179	85.5036	0.79	0.07	5.00	5.00	7.412	5.07134	7.20672	1.8
7.6279	85.5236	0.79	0.07	5.00	5.00	7.412	5.07230	7.20808	1.9
7.6379	85.5436	0.79	0.07	5.00	5.00	7.412	5.07325	7.20944	1.8
7.6479	85.5636	0.79	0.07	5.00	5.00	7.412	5.07421	7.21080	1.8
7.6579	85.5836	0.79	0.07	5.00	5.00	7.412	5.07517	7.21216	1.9
7.6679	85.6036	0.79	0.07	5.00	5.00	7.412	5.07612	7.21352	2.0
7.6779	85.6236	0.79	0.07	5.00	5.00	7.412	5.07708	7.21488	2.2
7.6879	85.6436	0.79	0.07	5.00	5.00	7.412	5.07804	7.21624	2.2
7.6979	85.6636	0.79	0.07	5.00	5.00	7.412	5.07899	7.21759	2.4
7.7079	85.6836	0.79	0.07	5.00	5.00	7.412	5.07995	7.21895	2.1
7.7179	85.7036	0.79	0.07	5.00	5.00	7.412	5.08091	7.22031	2.3
7.7279	85.7236	0.79	0.07	5.00	5.00	7.412	5.08186	7.22167	2.0
7.7379	85.7436	0.79	0.07	5.00	5.00	7.412	5.08282	7.22303	2.6
7.7479	85.7636	0.79	0.07	5.00	5.00	7.412	5.08377	7.22439	2.3
7.7579	85.7836	0.79	0.07	5.00	5.00	7.412	5.08473	7.22574	2.6
7.7679	85.8036	0.79	0.07	5.00	5.00	7.412	5.08568	7.22710	2.6
7.7779	85.8236	0.79	0.07	5.00	5.00	7.412	5.08664	7.22846	2.4
7.7879	85.8436	0.79	0.07	5.00	5.00	7.412	5.08759	7.22982	2.5
7.7979	85.8636	0.79	0.07	5.00	5.00	7.412	5.08855	7.23117	2.7
7.8079	85.8836	0.79	0.07	5.00	5.00	7.412	5.08950	7.23253	2.9
7.8179	85.9036	0.79	0.07	5.00	5.00	7.412	5.09046	7.23389	2.9
7.8279	85.9236	0.79	0.07	5.00	5.00	7.412	5.09141	7.23524	3.0
7.8379	85.9436	0.79	0.07	5.00	5.00	7.412	5.09237	7.23660	2.8
7.8479	85.9636	0.79	0.07	5.00	5.00	7.412	5.09332	7.23795	2.7
7.8579	85.9836	0.79	0.07	5.00	5.00	7.412	5.09427	7.23931	3.3
7.8679	86.0036	0.79	0.07	5.00	5.00	7.412	5.09523	7.24066	3.4
7.8779	86.0236	0.79	0.07	5.00	5.00	7.412	5.09618	7.24202	3.4
7.8879	86.0436	0.79	0.07	5.00	5.00	7.412	5.09713	7.24337	3.5
7.8979	86.0636	0.79	0.07	5.00	5.00	7.412	5.09809	7.24473	4.0
7.9079	86.0836	0.79	0.07	5.00	5.00	7.412	5.09904	7.24608	4.6
7.9179	86.1036	0.79	0.07	5.00	5.00	7.412	5.09999	7.24744	4.5
7.9279	86.1236	0.79	0.07	5.00	5.00	7.412	5.10095	7.24879	4.4
7.9379	86.1436	0.79	0.07	5.00	5.00	7.412	5.10190	7.25014	6.0
7.9479	86.1636	0.79	0.07	5.00	5.00	7.412	5.10285	7.25150	5.6
7.9579	86.1836	0.79	0.07	5.00	5.00	7.412	5.10380	7.25285	7.5
7.9679	86.2036	0.79	0.07	5.00	5.00	7.412	5.10475	7.25420	9.2
7.9779	86.2236	0.79	0.07	5.00	5.00	7.412	5.10571	7.25556	13.2
7.9879	86.2436	0.79	0.07	5.00	5.00	7.412	5.10666	7.25691	22.3
7.9979	86.2636	0.79	0.07	5.00	5.00	7.412	5.10761	7.25826	49.6
8.0079	86.2836	0.79	0.07	5.00	5.00	7.412	5.10856	7.25961	139.5
8.0179	86.3036	0.79	0.07	5.00	5.00	7.412	5.10951	7.26097	450.5
8.0279	86.3236	0.79	0.07	5.00	5.00	7.412	5.11046	7.26232	1474.0
8.0379	86.3436	0.79	0.07	5.00	5.00	7.412	5.11141	7.26367	3174.5
8.0479	86.3636	0.79	0.07	5.00	5.00	7.412	5.11237	7.26502	3208.2
8.0579	86.3836	0.79	0.07	5.00	5.00	7.412	5.11332	7.26637	1721.2
8.0679	86.4036	0.79	0.07	5.00	5.00	7.412	5.11427	7.26772	730.0
8.0779	86.4236	0.79	0.07	5.00	5.00	7.412	5.11522	7.26907	381.6
8.0879	86.4436	0.79	0.07	5.00	5.00	7.412	5.11617	7.27042	273.4
8.0979	86.4636	0.79	0.07	5.00	5.00	7.412	5.11712	7.27177	237.6
8.1079	86.4836	0.79	0.07	5.00	5.00	7.412	5.11807	7.27312	231.5
8.1179	86.5036	0.79	0.07	5.00	5.00	7.412	5.11902	7.27447	228.3
8.1279	86.5236	0.79	0.07	5.00	5.00	7.412	5.11997	7.27582	222.4
8.1379	86.5436	0.79	0.07	5.00	5.00	7.412	5.12092	7.27717	221.5
8.1479	86.5636	0.79	0.07	5.00	5.00	7.412	5.12187	7.27852	224.1
8.1579	86.5836	0.79	0.07	5.00	5.00	7.412	5.12281	7.27987	223.1
8.1679	86.6036	0.79	0.07	5.00	5.00	7.412	5.12376	7.28122	223.2
8.1779	86.6236	0.79	0.07	5.00	5.00	7.412	5.12471	7.28257	223.5
8.1879	86.6436	0.79	0.07	5.00	5.00	7.412	5.12566	7.28391	225.2
8.1979	86.6636	0.79	0.07	5.00	5.00	7.412	5.12661	7.28526	227.8
8.2079	86.6836	0.79	0.07	5.00	5.00	7.412	5.12756	7.28661	227.8
8.2179	86.7036	0.79	0.07	5.00	5.00	7.412	5.12851	7.28796	225.5
8.2279	86.7236	0.79	0.07	5.00	5.00	7.412	5.12945	7.28930	223.1
8.2379	86.7436	0.79	0.07	5.00	5.00	7.412	5.13040	7.29065	216.8
8.2479	86.7636	0.79	0.07	5.00	5.00	7.412	5.13135	7.29200	215.7
8.2579	86.7836	0.79	0.07	5.00	5.00	7.412	5.13230	7.29334	211.7
8.2679	86.8036	0.79	0.07	5.00	5.00	7.412	5.13325	7.29469	209.8
8.2779	86.8236	0.79	0.07	5.00	5.00	7.412	5.13419	7.29604	203.9
8.2879	86.8436	0.79	0.07	5.00	5.00	7.412	5.13514	7.29738	196.5
8.2979	86.8636	0.79	0.07	5.00	5.00	7.412	5.13609	7.29873	190.7
8.3079	86.8836	0.79	0.07	5.00	5.00	7.412	5.13703	7.30007	190.7
8.3179	86.9036	0.79	0.07	5.00	5.00	7.412	5.13798	7.30142	181.5
8.3279	86.9236	0.79	0.07	5.00	5.00	7.412	5.13893	7.30276	179.7
8.3379	86.9436	0.79	0.07	5.00	5.00	7.412	5.13987	7.30411	176.1
8.3479	86.9636	0.79	0.07	5.00	5.00	7.412	5.14082	7.30545	174.2
8.3579	86.9836	0.79	0.07	5.00	5.00	7.412	5.14177	7.30680	168.6
8.3679	87.0036	0.79	0.07	5.00	5.00	7.412	5.14271	7.30814	166.5
8.3779	87.0236	0.79	0.07	5.00	5.00	7.412	5.14366	7.30949	166.7
8.3879	87.0436	0.79	0.07	5.00	5.00	7.412	5.14460	7.31083	168.1
8.3979	87.0636	0.79	0.07	5.00	5.00	7.412	5.14555	7.31217	164.4
8.4079	87.0836	0.79	0.07	5.00	5.00	7.412	5.14649	7.31352	159.6
8.4179	87.1036	0.79	0.07	5.00	5.00	7.412	5.14744	7.31486	161.9
8.4279	87.1236	0.79	0.07	5.00	5.00	7.412	5.14838	7.31620	157.0
8.4379	87.1436	0.79	0.07	5.00	5.00	7.412	5.14933	7.31754	155.1
8.4479	87.1636	0.79	0.07	5.00	5.00	7.412	5.15027	7.31889	154.5
8.4579	87.1836	0.79	0.07	5.00	5.00	7.412	5.15122	7.32023	146.7
8.4679	87.2036	0.79	0.07	5.00	5.00	7.412	5.15216	7.32157	142.3
8.4779	87.2236	0.79	0.07	5.00	5.00	7.412	5.15311	7.32291	137.2
8.4879	87.2436	0.79	0.07	5.00	5.00	7.412	5.15405	7.32425	139.0
8.4979	87.2636	0.79	0.07	5.00	5.00	7.412	5.15499	7.32560	136.4
8.5079	87.2836	0.79	0.07	5.00	5.00	7.412	5.15594	7.32694	132.3
8.5179	87.3036	0.79	0.07	5.00	5.00	7.412	5.15688	7.32828	133.0
8.5279	87.3236	0.79	0.07	5.00	5.00	7.412	5.15782	7.32962	131.0
8.5379	87.3436	0.79	0.07	5.00	5.00	7.412	5.15877	7.33096	128.4
8.5479	87.3636	0.79	0.07	5.00	5.00	7.412	5.15971	7.33230	125.8
8.5579	87.3836	0.79	0.07	5.00	5.00	7.412	5.16065	7.33364	128.2
8.5679	87.4036	0.79	0.07	5.00	5.00	7.412	5.16160	7.33498	122.3
8.5779	87.4236	0.79	0.07	5.00	5.00	7.412	5.16254	7.33632	122.0
8.5879	87.4436	0.79	0.07	5.00	5.00	7.412	5.16348	7.33766	118.7
8.5979	87.4636	0.79	0.07	5.00	5.00	7.412	5.16442	7.33900	117.3
8.6079	87.4836	0.79	0.07	5.00	5.00	7.412	5.16536	7.34033	114.9
8.6179	87.5036	0.79	0.07	5.00	5.00	7.412	5.16631	7.34167	116.3
8.6279	87.5236	0.79	0.07	5.00	5.00	7.412	5.16725	7.34301	113.3
8.6379	87.5436	0.79	0.07	5.00	5.00	7.412	5.16819	7.34435	109.6
8.6479	87.5636	0.79	0.07	5.00	5.00	7.412	5.16913	7.34569	107.9
8.6579	87.5836	0.79	0.07	5.00	5.00	7.412	5.17007	7.34703	111.7
8.6679	87.6036	0.79	0.07	5.00	5.00	7.412	5.17101	7.34836	108.4
8.6779	87.6236	0.79	0.07	5.00	5.00	7.412	5.17195	7.34970	109.0
8.6879	87.6436	0.79	0.07	5.00	5.00	7.412	5.17290	7.35104	106.3
8.6979	87.6636	0.79	0.07	5.00	5.00	7.412	5.17384	7.35237	102.3
8.7079	87.6836	0.79	0.07	5.00	5.00	7.412	5.17478	7.35371	101.0
8.7179	87.7036	0.79	0.07	5.00	5.00	7.412	5.17572	7.35505	97.5
8.7279	87.7236	0.79	0.07	5.00	5.00	7.412	5.17666	7.35638	98.8
8.7379	87.7436	0.79	0.07	5.00	5.00	7.412	5.17760	7.35772	98.5
8.7479	87.7636	0.79	0.07	5.00	5.00	7.412	5.17854	7.35905	96.1
8.7579	87.7836	0.79	0.07	5.00	5.00	7.412	5.17948	7.36039	98.4
8.7679	87.8036	0.79	0.07	5.00	5.00	7.412	5.18042	7.36172	97.1
8.7779	87.8236	0.79	0.07	5.00	5.00	7.412	5.18136	7.36306	92.7
8.7879	87.8436	0.79	0.07	5.00	5.00	7.412	5.18229	7.36439	93.4
8.7979	87.8636	0.79	0.07	5.00	5.00	7.412	5.18323	7.36573	92.4
8.8079	87.8836	0.79	0.07	5.00	5.00	7.412	5.18417	7.36706	89.1
8.8179	87.9036	0.79	0.07	5.00	5.00	7.412	5.18511	7.36840	86.8
8.8279	87.9236	0.79	0.07	5.00	5.00	7.412	5.18605	7.36973	87.7
8.8379	87.9436	0.79	0.07	5.00	5.00	7.412	5.18699	7.37106	84.5
8.8479	87.9636	0.79	0.07	5.00	5.00	7.412	5.18793	7.37240	81.7
8.8579	87.9836	0.79	0.07	5.00	5.00	7.412	5.18887	7.37373	92.1
8.8679	88.0036	0.79	0.07	5.00	5.00	7.412	5.18980	7.37506	177.5
8.8779	88.0236	0.79	0.07	5.00	5.00	7.412	5.19074	7.37640	826.8
8.8879	88.0436	0.79	0.07	5.00	5.00	7.412	5.19168	7.37773	2146.2
8.8979	88.0636	0.79	0.07	5.00	5.00	7.412	5.19262	7.37906	1156.3
8.9079	88.0836	0.79	0.07	5.00	5.00	7.412	5.19355	7.38039	373.2
8.9179	88.1036	0.79	0.07	5.00	5.00	7.412	5.19449	7.38173	105.5
8.9279	88.1236	0.79	0.07	5.00	5.00	7.412	5.19543	7.38306	28.8
8.9379	88.1436	0.79	0.07	5.00	5.00	7.412	5.19637	7.38439	10.9
8.9479	88.1636	0.79	0.07	5.00	5.00	7.412	5.19730	7.38572	6.1
8.9579	88.1836	0.79	0.07	5.00	5.00	7.412	5.19824	7.38705	5.4
8.9679	88.2036	0.79	0.07	5.00	5.00	7.412	5.19917	7.38838	5.3
8.9779	88.2236	0.79	0.07	5.00	5.00	7.412	5.20011	7.38971	4.2
8.9879	88.2436	0.79	0.07	5.00	5.00	7.412	5.20105	7.39104	3.2
8.9979	88.2636	0.79	0.07	5.00	5.00	7.412	5.20198	7.39237	3.3
9.0079	88.2836	0.79	0.07	5.00	5.00	7.412	5.20292	7.39370	2.7
9.0179	88.3036	0.79	0.07	5.00	5.00	7.412	5.20385	7.39503	2.7
9.0279	88.3236	0.79	0.07	5.00	5.00	7.412	5.20479	7.39636	2.8
9.0379	88.3436	0.79	0.07	5.00	5.00	7.412	5.20573	7.39769	2.6
9.0479	88.3636	0.79	0.07	5.00	5.00	7.412	5.20666	7.39902	2.3
9.0579	88.3836	0.79	0.07	5.00	5.00	7.412	5.20760	7.40035	2.0
9.0679	88.4036	0.79	0.07	5.00	5.00	7.412	5.20853	7.40168	2.2
9.0779	88.4236	0.79	0.07	5.00	5.00	7.412	5.20946	7.40300	2.4
9.0879	88.4436	0.79	0.07	5.00	5.00	7.412	5.21040	7.40433	2.1
9.0979	88.4636	0.79	0.07	5.00	5.00	7.412	5.21133	7.40566	2.1
9.1079	88.4836	0.79	0.07	5.00	5.00	7.412	5.21227	7.40699	2.1
9.1179	88.5036	0.79	0.07	5.00	5.00	7.412	5.21320	7.40831	2.3
9.1279	88.5236	0.79	0.07	5.00	5.00	7.412	5.21414	7.40964	2.3
9.1379	88.5436	0.79	0.07	5.00	5.00	7.412	5.21507	7.41097	2.0
9.1479	88.5636	0.79	0.07	5.00	5.00	7.412	5.21600	7.41230	2.3
9.1579	88.5836	0.79	0.07	5.00	5.00	7.412	5.21694	7.41362	2.0
9.1679	88.6036	0.79	0.07	5.00	5.00	7.412	5.21787	7.41495	1.5
9.1779	88.6236	0.79	0.07	5.00	5.00	7.412	5.21880	7.41627	1.9
9.1879	88.6436	0.79	0.07	5.00	5.00	7.412	5.21974	7.41760	1.5
9.1979	88.6636	0.79	0.07	5.00	5.00	7.412	5.22067	7.41893	1.6
9.2079	88.6836	0.79	0.07	5.00	5.00	7.412	5.22160	7.42025	2.0
9.2179	88.7036	0.79	0.07	5.00	5.00	7.412	5.22253	7.42158	2.0
9.2279	88.7236	0.79	0.07	5.00	5.00	7.412	5.22347	7.42290	1.8
9.2379	88.7436	0.79	0.07	5.00	5.00	7.412	5.22440	7.42423	1.7
9.2479	88.7636	0.79	0.07	5.00	5.00	7.412	5.22533	7.42555	1.8
9.2579	88.7836	0.79	0.07	5.00	5.00	7.412	5.22626	7.42687	1.5
9.2679	88.8036	0.79	0.07	5.00	5.00	7.412	5.22719	7.42820	1.5
9.2779	88.8236	0.79	0.07	5.00	5.00	7.412	5.22813	7.42952	1.5
9.2879	88.8436	0.79	0.07	5.00	5.00	7.412	5.22906	7.43084	1.9
9.2979	88.8636	0.79	0.07	5.00	5.00	7.412	5.22999	7.43217	1.9
9.3079	88.8836	0.79	0.07	5.00	5.00	7.412	5.23092	7.43349	1.7
9.3179	88.9036	0.79	0.07	5.00	5.00	7.412	5.23185	7.43481	1.6
9.3279	88.9236	0.79	0.07	5.00	5.00	7.412	5.23278	7.43614	1.5
9.3379	88.9436	0.79	0.07	5.00	5.00	7.412	5.23371	7.43746	1.6
9.3479	88.9636	0.79	0.07	5.00	5.00	7.412	5.23464	7.43878	1.7
9.3579	88.9836	0.79	0.07	5.00	5.00	7.412	5.23557	7.44010	1.9
9.3679	89.0036	0.79	0.07	5.00	5.00	7.412	5.23650	7.44142	1.5
9.3779	89.0236	0.79	0.07	5.00	5.00	7.412	5.23743	7.44275	1.1