File: Data/Omega2Theta/2.0deg-2.0deg-rsm-3h10mins_11358-annealed_224_w_000-100.dat
# filename: 2.0deg-2.0deg-rsm-3h10mins_11358-annealed_224.dat
# reflection: (004)
# type: Projection of 100 omega2theta scans
# x-axis: omega2theta
#
# Omega	2Theta	Phi  	Chi   	X    	Y    	Z    	q_para	q_perp	Intensity
# [deg]	[deg] 	[deg]	[deg] 	[mm] 	[mm] 	[mm] 	[nm-1]	[nm-1]	[counts/s]
7.1544	85.0724	-0.24	0.13	0.00	-23.01	7.396	5.08167	7.15541	1.4
7.1644	85.0924	-0.24	0.13	0.00	-23.01	7.396	5.08263	7.15677	1.2
7.1744	85.1124	-0.24	0.13	0.00	-23.01	7.396	5.08360	7.15813	1.3
7.1844	85.1324	-0.24	0.13	0.00	-23.01	7.396	5.08457	7.15949	1.4
7.1944	85.1524	-0.24	0.13	0.00	-23.01	7.396	5.08553	7.16085	1.7
7.2044	85.1724	-0.24	0.13	0.00	-23.01	7.396	5.08650	7.16221	1.2
7.2144	85.1924	-0.24	0.13	0.00	-23.01	7.396	5.08746	7.16358	1.2
7.2244	85.2124	-0.24	0.13	0.00	-23.01	7.396	5.08843	7.16493	1.4
7.2344	85.2324	-0.24	0.13	0.00	-23.01	7.396	5.08939	7.16629	1.0
7.2444	85.2524	-0.24	0.13	0.00	-23.01	7.396	5.09036	7.16765	1.3
7.2544	85.2724	-0.24	0.13	0.00	-23.01	7.396	5.09133	7.16901	1.4
7.2644	85.2924	-0.24	0.13	0.00	-23.01	7.396	5.09229	7.17037	1.2
7.2744	85.3124	-0.24	0.13	0.00	-23.01	7.396	5.09326	7.17173	1.4
7.2844	85.3324	-0.24	0.13	0.00	-23.01	7.396	5.09422	7.17309	1.2
7.2944	85.3524	-0.24	0.13	0.00	-23.01	7.396	5.09518	7.17445	1.3
7.3044	85.3724	-0.24	0.13	0.00	-23.01	7.396	5.09615	7.17580	1.6
7.3144	85.3924	-0.24	0.13	0.00	-23.01	7.396	5.09711	7.17716	1.2
7.3244	85.4124	-0.24	0.13	0.00	-23.01	7.396	5.09808	7.17852	1.2
7.3344	85.4324	-0.24	0.13	0.00	-23.01	7.396	5.09904	7.17988	1.2
7.3444	85.4524	-0.24	0.13	0.00	-23.01	7.396	5.10001	7.18124	1.2
7.3544	85.4724	-0.24	0.13	0.00	-23.01	7.396	5.10097	7.18259	1.4
7.3644	85.4924	-0.24	0.13	0.00	-23.01	7.396	5.10193	7.18395	1.4
7.3744	85.5124	-0.24	0.13	0.00	-23.01	7.396	5.10290	7.18530	1.5
7.3844	85.5324	-0.24	0.13	0.00	-23.01	7.396	5.10386	7.18666	1.8
7.3944	85.5524	-0.24	0.13	0.00	-23.01	7.396	5.10482	7.18802	1.6
7.4044	85.5724	-0.24	0.13	0.00	-23.01	7.396	5.10578	7.18937	1.7
7.4144	85.5924	-0.24	0.13	0.00	-23.01	7.396	5.10675	7.19073	1.4
7.4244	85.6124	-0.24	0.13	0.00	-23.01	7.396	5.10771	7.19208	1.4
7.4344	85.6324	-0.24	0.13	0.00	-23.01	7.396	5.10867	7.19344	1.8
7.4444	85.6524	-0.24	0.13	0.00	-23.01	7.396	5.10963	7.19479	1.6
7.4544	85.6724	-0.24	0.13	0.00	-23.01	7.396	5.11060	7.19615	1.7
7.4644	85.6924	-0.24	0.13	0.00	-23.01	7.396	5.11156	7.19750	1.6
7.4744	85.7124	-0.24	0.13	0.00	-23.01	7.396	5.11252	7.19886	1.3
7.4844	85.7324	-0.24	0.13	0.00	-23.01	7.396	5.11348	7.20021	1.9
7.4944	85.7524	-0.24	0.13	0.00	-23.01	7.396	5.11444	7.20156	1.7
7.5044	85.7724	-0.24	0.13	0.00	-23.01	7.396	5.11540	7.20292	1.9
7.5144	85.7924	-0.24	0.13	0.00	-23.01	7.396	5.11637	7.20427	1.6
7.5244	85.8124	-0.24	0.13	0.00	-23.01	7.396	5.11733	7.20563	2.0
7.5344	85.8324	-0.24	0.13	0.00	-23.01	7.396	5.11829	7.20698	1.8
7.5444	85.8524	-0.24	0.13	0.00	-23.01	7.396	5.11925	7.20833	2.1
7.5544	85.8724	-0.24	0.13	0.00	-23.01	7.396	5.12021	7.20968	1.9
7.5644	85.8924	-0.24	0.13	0.00	-23.01	7.396	5.12117	7.21104	1.8
7.5744	85.9124	-0.24	0.13	0.00	-23.01	7.396	5.12213	7.21239	1.8
7.5844	85.9324	-0.24	0.13	0.00	-23.01	7.396	5.12309	7.21374	2.5
7.5944	85.9524	-0.24	0.13	0.00	-23.01	7.396	5.12405	7.21509	2.2
7.6044	85.9724	-0.24	0.13	0.00	-23.01	7.396	5.12501	7.21644	2.2
7.6144	85.9924	-0.24	0.13	0.00	-23.01	7.396	5.12597	7.21779	2.5
7.6244	86.0124	-0.24	0.13	0.00	-23.01	7.396	5.12693	7.21915	2.4
7.6344	86.0324	-0.24	0.13	0.00	-23.01	7.396	5.12789	7.22050	2.2
7.6444	86.0524	-0.24	0.13	0.00	-23.01	7.396	5.12885	7.22185	2.8
7.6544	86.0724	-0.24	0.13	0.00	-23.01	7.396	5.12981	7.22320	3.3
7.6644	86.0924	-0.24	0.13	0.00	-23.01	7.396	5.13076	7.22455	2.6
7.6744	86.1124	-0.24	0.13	0.00	-23.01	7.396	5.13172	7.22590	3.7
7.6844	86.1324	-0.24	0.13	0.00	-23.01	7.396	5.13268	7.22725	3.2
7.6944	86.1524	-0.24	0.13	0.00	-23.01	7.396	5.13364	7.22860	3.8
7.7044	86.1724	-0.24	0.13	0.00	-23.01	7.396	5.13460	7.22994	3.6
7.7144	86.1924	-0.24	0.13	0.00	-23.01	7.396	5.13556	7.23129	4.7
7.7244	86.2124	-0.24	0.13	0.00	-23.01	7.396	5.13651	7.23264	5.1
7.7344	86.2324	-0.24	0.13	0.00	-23.01	7.396	5.13747	7.23399	5.9
7.7444	86.2524	-0.24	0.13	0.00	-23.01	7.396	5.13843	7.23534	8.8
7.7544	86.2724	-0.24	0.13	0.00	-23.01	7.396	5.13939	7.23669	12.2
7.7644	86.2924	-0.24	0.13	0.00	-23.01	7.396	5.14034	7.23804	24.2
7.7744	86.3124	-0.24	0.13	0.00	-23.01	7.396	5.14130	7.23938	61.6
7.7844	86.3324	-0.24	0.13	0.00	-23.01	7.396	5.14226	7.24073	211.2
7.7944	86.3524	-0.24	0.13	0.00	-23.01	7.396	5.14321	7.24208	886.2
7.8044	86.3724	-0.24	0.13	0.00	-23.01	7.396	5.14417	7.24342	2602.3
7.8144	86.3924	-0.24	0.13	0.00	-23.01	7.396	5.14513	7.24477	2512.3
7.8244	86.4124	-0.24	0.13	0.00	-23.01	7.396	5.14608	7.24612	1177.6
7.8344	86.4324	-0.24	0.13	0.00	-23.01	7.396	5.14704	7.24746	514.8
7.8444	86.4524	-0.24	0.13	0.00	-23.01	7.396	5.14800	7.24881	270.3
7.8544	86.4724	-0.24	0.13	0.00	-23.01	7.396	5.14895	7.25016	203.9
7.8644	86.4924	-0.24	0.13	0.00	-23.01	7.396	5.14991	7.25150	186.1
7.8744	86.5124	-0.24	0.13	0.00	-23.01	7.396	5.15086	7.25285	176.1
7.8844	86.5324	-0.24	0.13	0.00	-23.01	7.396	5.15182	7.25419	179.7
7.8944	86.5524	-0.24	0.13	0.00	-23.01	7.396	5.15277	7.25554	171.9
7.9044	86.5724	-0.24	0.13	0.00	-23.01	7.396	5.15373	7.25688	168.9
7.9144	86.5924	-0.24	0.13	0.00	-23.01	7.396	5.15468	7.25823	165.9
7.9244	86.6124	-0.24	0.13	0.00	-23.01	7.396	5.15564	7.25957	163.0
7.9344	86.6324	-0.24	0.13	0.00	-23.01	7.396	5.15659	7.26092	167.3
7.9444	86.6524	-0.24	0.13	0.00	-23.01	7.396	5.15755	7.26226	166.8
7.9544	86.6724	-0.24	0.13	0.00	-23.01	7.396	5.15850	7.26360	170.2
7.9644	86.6924	-0.24	0.13	0.00	-23.01	7.396	5.15946	7.26495	168.3
7.9744	86.7124	-0.24	0.13	0.00	-23.01	7.396	5.16041	7.26629	168.1
7.9844	86.7324	-0.24	0.13	0.00	-23.01	7.396	5.16136	7.26763	167.7
7.9944	86.7524	-0.24	0.13	0.00	-23.01	7.396	5.16232	7.26898	164.3
8.0044	86.7724	-0.24	0.13	0.00	-23.01	7.396	5.16327	7.27032	159.2
8.0144	86.7924	-0.24	0.13	0.00	-23.01	7.396	5.16423	7.27166	158.1
8.0244	86.8124	-0.24	0.13	0.00	-23.01	7.396	5.16518	7.27300	153.0
8.0344	86.8324	-0.24	0.13	0.00	-23.01	7.396	5.16613	7.27435	145.9
8.0444	86.8524	-0.24	0.13	0.00	-23.01	7.396	5.16708	7.27569	143.4
8.0544	86.8724	-0.24	0.13	0.00	-23.01	7.396	5.16804	7.27703	143.7
8.0644	86.8924	-0.24	0.13	0.00	-23.01	7.396	5.16899	7.27837	139.2
8.0744	86.9124	-0.24	0.13	0.00	-23.01	7.396	5.16994	7.27971	137.0
8.0844	86.9324	-0.24	0.13	0.00	-23.01	7.396	5.17089	7.28105	135.6
8.0944	86.9524	-0.24	0.13	0.00	-23.01	7.396	5.17185	7.28239	129.7
8.1044	86.9724	-0.24	0.13	0.00	-23.01	7.396	5.17280	7.28373	130.4
8.1144	86.9924	-0.24	0.13	0.00	-23.01	7.396	5.17375	7.28507	127.9
8.1244	87.0124	-0.24	0.13	0.00	-23.01	7.396	5.17470	7.28641	128.4
8.1344	87.0324	-0.24	0.13	0.00	-23.01	7.396	5.17565	7.28775	123.9
8.1444	87.0524	-0.24	0.13	0.00	-23.01	7.396	5.17660	7.28909	124.4
8.1544	87.0724	-0.24	0.13	0.00	-23.01	7.396	5.17755	7.29043	120.7
8.1644	87.0924	-0.24	0.13	0.00	-23.01	7.396	5.17851	7.29177	123.6
8.1744	87.1124	-0.24	0.13	0.00	-23.01	7.396	5.17946	7.29311	119.0
8.1844	87.1324	-0.24	0.13	0.00	-23.01	7.396	5.18041	7.29445	118.4
8.1944	87.1524	-0.24	0.13	0.00	-23.01	7.396	5.18136	7.29579	116.6
8.2044	87.1724	-0.24	0.13	0.00	-23.01	7.396	5.18231	7.29712	113.8
8.2144	87.1924	-0.24	0.13	0.00	-23.01	7.396	5.18326	7.29846	114.5
8.2244	87.2124	-0.24	0.13	0.00	-23.01	7.396	5.18421	7.29980	108.7
8.2344	87.2324	-0.24	0.13	0.00	-23.01	7.396	5.18516	7.30114	107.6
8.2444	87.2524	-0.24	0.13	0.00	-23.01	7.396	5.18611	7.30247	103.0
8.2544	87.2724	-0.24	0.13	0.00	-23.01	7.396	5.18706	7.30381	104.1
8.2644	87.2924	-0.24	0.13	0.00	-23.01	7.396	5.18801	7.30515	104.3
8.2744	87.3124	-0.24	0.13	0.00	-23.01	7.396	5.18896	7.30648	100.3
8.2844	87.3324	-0.24	0.13	0.00	-23.01	7.396	5.18991	7.30782	100.9
8.2944	87.3524	-0.24	0.13	0.00	-23.01	7.396	5.19085	7.30916	101.6
8.3044	87.3724	-0.24	0.13	0.00	-23.01	7.396	5.19180	7.31049	103.0
8.3144	87.3924	-0.24	0.13	0.00	-23.01	7.396	5.19275	7.31183	100.5
8.3244	87.4124	-0.24	0.13	0.00	-23.01	7.396	5.19370	7.31316	97.3
8.3344	87.4324	-0.24	0.13	0.00	-23.01	7.396	5.19465	7.31450	96.4
8.3444	87.4524	-0.24	0.13	0.00	-23.01	7.396	5.19560	7.31583	94.8
8.3544	87.4724	-0.24	0.13	0.00	-23.01	7.396	5.19654	7.31717	94.0
8.3644	87.4924	-0.24	0.13	0.00	-23.01	7.396	5.19749	7.31850	91.1
8.3744	87.5124	-0.24	0.13	0.00	-23.01	7.396	5.19844	7.31984	88.1
8.3844	87.5324	-0.24	0.13	0.00	-23.01	7.396	5.19939	7.32117	87.6
8.3944	87.5524	-0.24	0.13	0.00	-23.01	7.396	5.20033	7.32251	89.2
8.4044	87.5724	-0.24	0.13	0.00	-23.01	7.396	5.20128	7.32384	85.8
8.4144	87.5924	-0.24	0.13	0.00	-23.01	7.396	5.20223	7.32517	88.0
8.4244	87.6124	-0.24	0.13	0.00	-23.01	7.396	5.20318	7.32651	85.8
8.4344	87.6324	-0.24	0.13	0.00	-23.01	7.396	5.20412	7.32784	85.9
8.4444	87.6524	-0.24	0.13	0.00	-23.01	7.396	5.20507	7.32917	82.5
8.4544	87.6724	-0.24	0.13	0.00	-23.01	7.396	5.20602	7.33050	81.6
8.4644	87.6924	-0.24	0.13	0.00	-23.01	7.396	5.20696	7.33184	81.6
8.4744	87.7124	-0.24	0.13	0.00	-23.01	7.396	5.20791	7.33317	79.0
8.4844	87.7324	-0.24	0.13	0.00	-23.01	7.396	5.20885	7.33450	76.5
8.4944	87.7524	-0.24	0.13	0.00	-23.01	7.396	5.20980	7.33583	78.5
8.5044	87.7724	-0.24	0.13	0.00	-23.01	7.396	5.21074	7.33716	76.0
8.5144	87.7924	-0.24	0.13	0.00	-23.01	7.396	5.21169	7.33850	78.3
8.5244	87.8124	-0.24	0.13	0.00	-23.01	7.396	5.21264	7.33983	77.0
8.5344	87.8324	-0.24	0.13	0.00	-23.01	7.396	5.21358	7.34116	73.2
8.5444	87.8524	-0.24	0.13	0.00	-23.01	7.396	5.21453	7.34249	70.6
8.5544	87.8724	-0.24	0.13	0.00	-23.01	7.396	5.21547	7.34382	66.5
8.5644	87.8924	-0.24	0.13	0.00	-23.01	7.396	5.21642	7.34515	68.1
8.5744	87.9124	-0.24	0.13	0.00	-23.01	7.396	5.21736	7.34648	67.5
8.5844	87.9324	-0.24	0.13	0.00	-23.01	7.396	5.21830	7.34781	67.1
8.5944	87.9524	-0.24	0.13	0.00	-23.01	7.396	5.21925	7.34914	63.5
8.6044	87.9724	-0.24	0.13	0.00	-23.01	7.396	5.22019	7.35047	66.9
8.6144	87.9924	-0.24	0.13	0.00	-23.01	7.396	5.22114	7.35180	81.1
8.6244	88.0124	-0.24	0.13	0.00	-23.01	7.396	5.22208	7.35313	183.7
8.6344	88.0324	-0.24	0.13	0.00	-23.01	7.396	5.22302	7.35445	964.3
8.6444	88.0524	-0.24	0.13	0.00	-23.01	7.396	5.22397	7.35578	2121.0
8.6544	88.0724	-0.24	0.13	0.00	-23.01	7.396	5.22491	7.35711	1031.5
8.6644	88.0924	-0.24	0.13	0.00	-23.01	7.396	5.22585	7.35844	385.0
8.6744	88.1124	-0.24	0.13	0.00	-23.01	7.396	5.22680	7.35977	136.4
8.6844	88.1324	-0.24	0.13	0.00	-23.01	7.396	5.22774	7.36109	42.7
8.6944	88.1524	-0.24	0.13	0.00	-23.01	7.396	5.22868	7.36242	13.4
8.7044	88.1724	-0.24	0.13	0.00	-23.01	7.396	5.22962	7.36375	7.1
8.7144	88.1924	-0.24	0.13	0.00	-23.01	7.396	5.23057	7.36507	5.9
8.7244	88.2124	-0.24	0.13	0.00	-23.01	7.396	5.23151	7.36640	4.5
8.7344	88.2324	-0.24	0.13	0.00	-23.01	7.396	5.23245	7.36773	3.1
8.7444	88.2524	-0.24	0.13	0.00	-23.01	7.396	5.23339	7.36905	2.7
8.7544	88.2724	-0.24	0.13	0.00	-23.01	7.396	5.23433	7.37038	2.7
8.7644	88.2924	-0.24	0.13	0.00	-23.01	7.396	5.23527	7.37170	1.8
8.7744	88.3124	-0.24	0.13	0.00	-23.01	7.396	5.23622	7.37303	2.0
8.7844	88.3324	-0.24	0.13	0.00	-23.01	7.396	5.23716	7.37436	2.1
8.7944	88.3524	-0.24	0.13	0.00	-23.01	7.396	5.23810	7.37568	2.1
8.8044	88.3724	-0.24	0.13	0.00	-23.01	7.396	5.23904	7.37701	1.7
8.8144	88.3924	-0.24	0.13	0.00	-23.01	7.396	5.23998	7.37833	2.6
8.8244	88.4124	-0.24	0.13	0.00	-23.01	7.396	5.24092	7.37965	1.8
8.8344	88.4324	-0.24	0.13	0.00	-23.01	7.396	5.24186	7.38098	1.7
8.8444	88.4524	-0.24	0.13	0.00	-23.01	7.396	5.24280	7.38230	2.3
8.8544	88.4724	-0.24	0.13	0.00	-23.01	7.396	5.24374	7.38363	1.7
8.8644	88.4924	-0.24	0.13	0.00	-23.01	7.396	5.24468	7.38495	1.7
8.8744	88.5124	-0.24	0.13	0.00	-23.01	7.396	5.24562	7.38627	2.2
8.8844	88.5324	-0.24	0.13	0.00	-23.01	7.396	5.24656	7.38760	1.8
8.8944	88.5524	-0.24	0.13	0.00	-23.01	7.396	5.24750	7.38892	1.6
8.9044	88.5724	-0.24	0.13	0.00	-23.01	7.396	5.24844	7.39024	1.7
8.9144	88.5924	-0.24	0.13	0.00	-23.01	7.396	5.24938	7.39156	1.6
8.9244	88.6124	-0.24	0.13	0.00	-23.01	7.396	5.25032	7.39288	1.8
8.9344	88.6324	-0.24	0.13	0.00	-23.01	7.396	5.25125	7.39421	1.7
8.9444	88.6524	-0.24	0.13	0.00	-23.01	7.396	5.25219	7.39553	1.6
8.9544	88.6724	-0.24	0.13	0.00	-23.01	7.396	5.25313	7.39685	1.8
8.9644	88.6924	-0.24	0.13	0.00	-23.01	7.396	5.25407	7.39817	1.7
8.9744	88.7124	-0.24	0.13	0.00	-23.01	7.396	5.25501	7.39949	1.9
8.9844	88.7324	-0.24	0.13	0.00	-23.01	7.396	5.25595	7.40081	1.7
8.9944	88.7524	-0.24	0.13	0.00	-23.01	7.396	5.25688	7.40213	1.2
9.0044	88.7724	-0.24	0.13	0.00	-23.01	7.396	5.25782	7.40345	1.7
9.0144	88.7924	-0.24	0.13	0.00	-23.01	7.396	5.25876	7.40477	1.5
9.0244	88.8124	-0.24	0.13	0.00	-23.01	7.396	5.25970	7.40609	1.3
9.0344	88.8324	-0.24	0.13	0.00	-23.01	7.396	5.26063	7.40741	1.4
9.0444	88.8524	-0.24	0.13	0.00	-23.01	7.396	5.26157	7.40873	1.3
9.0544	88.8724	-0.24	0.13	0.00	-23.01	7.396	5.26251	7.41005	1.3
9.0644	88.8924	-0.24	0.13	0.00	-23.01	7.396	5.26344	7.41137	1.5
9.0744	88.9124	-0.24	0.13	0.00	-23.01	7.396	5.26438	7.41269	1.3
9.0844	88.9324	-0.24	0.13	0.00	-23.01	7.396	5.26532	7.41401	1.5
9.0944	88.9524	-0.24	0.13	0.00	-23.01	7.396	5.26625	7.41532	1.7
9.1044	88.9724	-0.24	0.13	0.00	-23.01	7.396	5.26719	7.41664	1.2
9.1144	88.9924	-0.24	0.13	0.00	-23.01	7.396	5.26813	7.41796	1.5
9.1244	89.0124	-0.24	0.13	0.00	-23.01	7.396	5.26906	7.41928	1.4
9.1344	89.0324	-0.24	0.13	0.00	-23.01	7.396	5.27000	7.42060	1.3